timestamp,timestamp_sample,ref_timestamp,ref_lat,ref_lon,x,y,z,delta_xy[0],delta_xy[1],delta_z,vx,vy,vz,z_deriv,delta_vxy[0],delta_vxy[1],delta_vz,ax,ay,az,heading,delta_heading,ref_alt,dist_bottom,eph,epv,evh,evv,vxy_max,vz_max,hagl_min,hagl_max,xy_valid,z_valid,v_xy_valid,v_z_valid,xy_reset_counter,z_reset_counter,vxy_reset_counter,vz_reset_counter,heading_reset_counter,xy_global,z_global,dist_bottom_valid,dist_bottom_sensor_bitfield
757000,757000,0,nan,nan,-2.3440603e-19,2.5166958e-18,7.173533e-08,0.0,0.0,0.0,-3.329974e-17,4.2623667e-16,2.6057074e-05,2.618119e-05,-6.938894e-17,6.661338e-16,0.0,6.938894e-15,-4.440892e-14,0.0049717724,0.12114607,0.12114607,nan,0.100000225,0.70622146,3.5000029,7.071068,0.45001808,inf,inf,inf,inf,0,1,0,1,1,0,1,0,1,0,0,1,2
989000,989000,0,nan,nan,2.1270125e-16,-1.962432e-15,-0.009280342,0.0,0.0,0.0,1.6588878e-15,-1.5010581e-14,0.0015172567,-0.00723635,-6.938894e-17,6.661338e-16,0.0,6.167906e-15,-6.1679055e-14,0.004970365,0.12114607,0.12114607,nan,0.1,0.6895861,1.5660614,4.527256,0.4519794,inf,inf,inf,inf,0,1,0,1,1,0,1,0,1,0,0,1,2
1493000,1493000,0,nan,nan,-1.8660093e-15,1.41326854e-14,0.0013900754,0.0,0.0,0.0,-6.5570735e-15,5.0563754e-14,0.0046784147,0.0066819657,-6.938894e-17,6.661338e-16,0.0,3.0531133e-14,-2.4424907e-13,0.0049605966,0.12114607,0.12114607,nan,0.1,0.768217,0.9161828,1.9304107,0.46657088,inf,inf,inf,inf,0,1,0,1,1,0,1,0,1,0,0,1,2
1989000,1989000,0,nan,nan,2.214853e-14,-1.8495935e-13,0.0013471168,0.0,0.0,0.0,7.4089985e-14,-6.167979e-13,0.006669751,0.0055756597,-6.938894e-17,6.661338e-16,0.0,1.3530842e-13,-1.1102229e-12,0.0049080695,0.12114607,0.12114607,nan,0.1,0.5265873,0.752542,1.2158052,0.49430358,inf,inf,inf,inf,0,1,0,1,1,0,1,0,1,0,0,1,2
2502000,2502000,0,nan,nan,8.849949e-14,-7.3320484e-13,0.0024716435,0.0,0.0,0.0,2.2288414e-13,-1.8447136e-12,0.008485586,0.0056549306,-6.938894e-17,6.661338e-16,0.0,3.5665915e-13,-2.9309888e-12,0.0048056245,0.12114607,0.12114607,nan,0.1,0.62648493,0.7247153,1.5279261,0.5250042,inf,inf,inf,inf,0,1,0,1,1,0,1,0,1,0,0,1,2
2996000,2996000,0,nan,nan,1.6216495e-13,-1.341536e-12,0.004083187,0.0,0.0,0.0,3.354339e-13,-2.7736483e-12,0.009835042,0.0061424784,-6.938894e-17,6.661338e-16,0.0,8.072247e-13,-6.6428347e-12,0.0045907996,0.12114607,0.12114607,nan,0.1,0.75445646,0.7452777,1.662114,0.54761994,inf,inf,inf,inf,0,1,0,1,1,0,1,0,1,0,0,1,2
3505000,3505000,0,nan,nan,1.4145946e-13,-1.1686673e-12,0.003565392,0.0,0.0,0.0,3.8985124e-13,-3.2126244e-12,0.009416445,0.0029441984,-6.938894e-17,6.661338e-16,0.0,1.2782985e-12,-1.0497775e-11,0.004367696,0.12114607,0.12114607,nan,0.1,0.60063195,0.77647376,1.2719672,0.5542792,inf,inf,inf,inf,0,1,0,1,1,0,1,0,1,0,0,1,2
4004000,4004000,0,nan,nan,-2.9294536e-14,2.3821337e-13,-0.00030859947,0.0,0.0,0.0,2.3723745e-13,-1.9529391e-12,0.0072667594,-0.002670326,-6.938894e-17,6.661338e-16,0.0,3.4496217e-12,-2.8326548e-11,0.0033389246,0.12114607,0.12114607,nan,0.1,0.6864719,0.79357934,1.3067567,0.54309344,inf,inf,inf,inf,0,1,0,1,1,0,1,0,1,0,0,1,2
4497000,4489000,0,nan,nan,-1.5783222e-13,1.296925e-12,-0.0006779984,0.0,0.0,0.0,2.3456508e-13,-1.9270028e-12,0.0072467723,-0.00045701553,-6.938894e-17,6.661338e-16,0.0,2.3748362e-12,-1.9512168e-11,0.003846362,0.12114607,0.12114607,nan,0.1,0.522628,0.8135693,1.0012738,0.52904797,inf,inf,inf,inf,0,1,0,1,1,0,1,0,1,0,0,1,2
4988000,4979000,0,nan,nan,-1.0199895e-13,8.419692e-13,0.004762651,0.0,0.0,0.0,3.922241e-13,-3.2140844e-12,0.0095201675,0.0063929027,-6.938894e-17,6.661338e-16,0.0,7.752478e-12,-6.368516e-11,0.0012964009,0.12114607,0.12114607,nan,0.10090847,0.5768121,0.8025763,1.0196669,0.50210553,inf,inf,inf,inf,0,1,0,1,1,0,1,0,1,0,0,1,2
5493000,5485000,0,nan,nan,5.97663e-11,-1.1770193e-05,0.00745166,0.0,0.0,0.0,4.3324785e-10,-6.634179e-05,0.009790145,0.0057415864,-6.938894e-17,6.661338e-16,0.0,1.9709623e-09,-0.00021411401,0.0027805567,0.12116446,0.12114607,nan,0.1,0.47512585,0.8104854,0.8242904,0.48463446,inf,inf,inf,inf,0,1,0,1,1,0,1,0,1,0,0,1,2
6001000,5992000,5504000,40.1540302,116.25952090000001,1.0243258e-09,-8.602088e-05,0.004271732,0.0,0.0,0.0,3.953522e-09,-0.00026939248,0.007643225,5.103284e-06,-6.938894e-17,6.661338e-16,0.0,9.039125e-09,-0.00045504532,0.0016363336,0.121187486,0.12114607,49.93473,0.101604454,0.5167505,0.8053737,0.8245488,0.46428144,inf,inf,inf,inf,0,1,0,1,1,0,1,0,1,1,1,1,0
6492000,6481000,5504000,40.1540302,116.25952090000001,3.865732e-09,-0.00020586,0.012166987,0.0,0.0,0.0,1.1234563e-08,-0.0005075947,0.01055066,0.008804238,-6.938894e-17,6.661338e-16,0.0,1.8680243e-08,-0.0006473959,0.0031090209,0.12121141,0.12114607,49.93473,0.10013897,0.5726383,0.78869206,0.8188406,0.4408282,inf,inf,inf,inf,0,1,0,1,1,0,1,0,1,1,1,1,0
7000000,6993000,5504000,40.1540302,116.25952090000001,-1.1477965e-07,-0.00033399425,0.019315824,0.0,0.0,0.0,-5.006687e-06,-0.00072085124,0.01232591,0.012052285,-6.938894e-17,6.661338e-16,0.0,-9.578142e-05,-0.0007618811,0.0024050474,-0.0041704644,-0.12540625,49.93473,0.1,0.48516098,0.77959204,0.6403763,0.42017168,inf,inf,inf,inf,0,1,0,1,1,0,1,0,2,1,1,1,0
7500000,7492000,5504000,40.1540302,116.25952090000001,-1.6424865e-05,-0.0004711629,0.017379377,0.0,0.0,0.0,-5.6721106e-05,-0.0009384211,0.010100478,0.003650087,-6.938894e-17,6.661338e-16,0.0,-8.68904e-05,-0.00091769896,0.002838671,-0.0041662343,-0.12540625,49.93473,0.1,0.48653758,0.7741417,0.51957893,0.40296158,inf,inf,inf,inf,0,1,0,1,1,0,1,0,2,1,1,1,0
7988000,7980000,5504000,40.1540302,116.25952090000001,-4.0814837e-05,-0.0006481735,0.018470895,0.0,0.0,0.0,-8.5889806e-05,-0.0012098155,0.00971601,0.003964869,-6.938894e-17,6.661338e-16,0.0,-7.03468e-05,-0.0010395906,0.0015143304,-0.0041694464,-0.12540625,49.93473,0.10057622,0.4073206,0.7675551,0.5105355,0.38597143,inf,inf,inf,inf,0,1,0,1,1,0,1,0,2,1,1,1,0
8495000,8495000,5504000,40.1540302,116.25952090000001,-5.6836943e-05,-0.00083964353,0.017112482,0.0,0.0,0.0,-8.700095e-05,-0.0014019575,0.008097774,-0.0001864445,-6.938894e-17,6.661338e-16,0.0,-3.8199425e-05,-0.0010334769,0.00045746565,-0.0041681295,-0.12540625,49.93473,0.1,0.4516151,0.7509089,0.58766854,0.36582997,inf,inf,inf,inf,0,1,0,1,1,0,1,0,2,1,1,1,0
8997000,8997000,5504000,40.1540302,116.25952090000001,-5.1030438e-05,-0.00090998167,0.015831226,0.0,0.0,0.0,-5.5134904e-05,-0.0013703379,0.00672826,-0.0021106787,-6.938894e-17,6.661338e-16,0.0,2.344299e-06,-0.0008959015,0.001954181,-0.004160314,-0.12540625,49.93473,0.1,0.50517696,0.7337201,0.61354995,0.3461585,inf,inf,inf,inf,0,1,0,1,1,0,1,0,2,1,1,1,0
9497000,9497000,5504000,40.1540302,116.25952090000001,-2.6020429e-05,-0.0007732368,0.009831492,0.0,0.0,0.0,-1.1111556e-05,-0.0011663294,0.0038424064,-0.0085630575,-6.938894e-17,6.661338e-16,0.0,3.205937e-05,-0.0007774108,5.867332e-05,-0.0041483557,-0.12540625,49.93473,0.1,0.43593723,0.73028535,0.5085843,0.33372062,inf,inf,inf,inf,0,1,0,1,1,0,1,0,2,1,1,1,0
9997000,9997000,5504000,40.1540302,116.25952090000001,0.00016530349,-0.00047537978,0.00720152,3.4823286e-06,0.00057932275,0.0,0.02000827,-0.040090308,0.17933618,0.1682123,0.01997797,-0.03899936,0.17701802,5.196931e-05,-0.0007390764,0.0020833684,-0.004135766,-0.12540625,49.93473,0.1,0.36380342,0.7143656,0.27160725,0.21853933,inf,inf,inf,inf,1,1,1,1,2,0,2,1,2,1,1,1,0
10494000,10494000,5504000,40.1540302,116.25952090000001,0.0026817292,-0.009937925,0.08740934,3.4823286e-06,0.00057932275,0.0,0.0018062294,-0.016060531,0.14487022,0.11964743,0.01997797,-0.03899936,0.17701802,-0.006952944,0.005521255,0.00072518986,-0.0040639583,-0.12540625,49.93473,0.1,0.261607,0.6133049,0.18392126,0.1583295,inf,inf,inf,inf,1,1,1,1,2,0,2,1,2,1,1,1,0
10998000,10998000,5504000,40.1540302,116.25952090000001,0.0022180607,-0.0044985185,0.08920343,3.4823286e-06,0.00057932275,0.0,0.006594536,-0.0015613475,0.087456755,0.041228503,0.01997797,-0.03899936,0.17701802,0.01163875,0.007741722,0.0016300215,-0.0038385664,-0.12540625,49.93473,0.1,0.21491289,0.54249555,0.17768979,0.1301845,inf,inf,inf,inf,1,1,1,1,2,0,2,1,2,1,1,1,0
11489000,11489000,5504000,40.1540302,116.25952090000001,0.0032142662,0.00071803195,0.08892789,3.4823286e-06,0.00057932275,0.0,0.0008498359,0.006352719,0.06689211,0.015557785,0.01997797,-0.03899936,0.17701802,-0.007335067,0.008947784,-0.0051511447,-0.0034910706,-0.12540625,49.93473,0.1,0.19490233,0.4989677,0.18477498,0.11973665,inf,inf,inf,inf,1,1,1,1,2,0,2,1,2,1,1,1,0
11997000,11997000,5504000,40.1540302,116.25952090000001,0.0045961495,-0.004545726,0.031195741,3.4823286e-06,0.00057932275,0.0,0.0054200855,-0.0035393366,-0.0009607255,-0.08792825,0.01997797,-0.03899936,0.17701802,0.006785443,-0.00227043,-0.013531185,-0.0034097638,-0.12540625,49.93473,0.1,0.18798311,0.46379346,0.18330258,0.118009575,inf,inf,inf,inf,1,1,1,1,2,0,2,1,2,1,1,1,0
12500000,12500000,5504000,40.1540302,116.25952090000001,0.01870359,-0.013717992,0.009388051,3.4823286e-06,0.00057932275,0.0,0.022891264,-0.013332401,-0.015922464,-0.072126985,0.01997797,-0.03899936,0.17701802,0.015719159,-0.00823555,-0.020511447,-0.0035931563,-0.12540625,49.93473,0.1179836,0.18301281,0.44052017,0.17550486,0.11822786,inf,inf,inf,inf,1,1,1,1,2,0,2,1,2,1,1,1,0
13001000,13001000,5504000,40.1540302,116.25952090000001,0.03397709,-0.007646004,-0.014898653,3.4823286e-06,0.00057932275,0.0,0.034763034,-0.0012532056,-0.038115792,-0.08062185,0.01997797,-0.03899936,0.17701802,0.015739266,0.0029008444,-0.019171834,-0.0035184028,-0.12540625,49.93473,0.112937175,0.17953016,0.41925386,0.16916572,0.11837996,inf,inf,inf,inf,1,1,1,1,2,0,2,1,2,1,1,1,0
13498000,13498000,5504000,40.1540302,116.25952090000001,0.05300873,-0.004823932,-0.05155769,3.4823286e-06,0.00057932275,0.0,0.05271765,0.00078164716,-0.062685624,-0.09580324,0.01997797,-0.03899936,0.17701802,0.02887721,0.0016295029,-0.017025506,-0.003387359,-0.12540625,49.93473,0.11773632,0.17635013,0.40491545,0.16272514,0.11762965,inf,inf,inf,inf,1,1,1,1,2,0,2,1,2,1,1,1,0
13999000,13999000,5504000,40.1540302,116.25952090000001,0.06774873,0.001795715,-0.085357666,3.4823286e-06,0.00057932275,0.0,0.058272876,0.008299067,-0.078919776,-0.09576201,0.01997797,-0.03899936,0.17701802,0.02199702,0.0070524956,-0.028584898,-0.00319697,-0.12540625,49.93473,0.123950794,0.17360705,0.3906458,0.15957928,0.11221585,inf,inf,inf,inf,1,1,1,1,2,0,2,1,2,1,1,1,0
14501000,14501000,5504000,40.1540302,116.25952090000001,0.06925129,-0.021425065,-0.103624046,3.4823286e-06,0.00057932275,0.0,0.050812528,-0.023444492,-0.082546726,-0.07358083,0.01997797,-0.03899936,0.17701802,0.01717097,-0.018354164,-0.02952013,-0.0034875695,-0.12540625,49.93473,0.13054797,0.1730976,0.38193116,0.1556419,0.101893716,inf,inf,inf,inf,1,1,1,1,2,0,2,1,2,1,1,1,0
14997000,14997000,5504000,40.1540302,116.25952090000001,0.027768293,-0.025048394,-0.11225003,3.4823286e-06,0.00057932275,0.0,-0.0032870458,-0.021865746,-0.08235195,-0.054591842,0.01997797,-0.03899936,0.17701802,-0.017077962,-0.011695185,-0.011285975,-0.003878234,-0.12540625,49.93473,0.12972954,0.17495653,0.37382644,0.15264675,0.0988489,inf,inf,inf,inf,1,1,1,1,2,0,2,1,2,1,1,1,0
15503000,15503000,5504000,40.1540302,116.25952090000001,0.00115352,-0.039887194,-0.0914101,3.4823286e-06,0.00057932275,0.0,-0.0255286,-0.036364853,-0.06422167,-0.004556,0.01997797,-0.03899936,0.17701802,-0.020148333,-0.01942422,-0.017985081,-0.004441006,-0.12540625,49.93473,0.12656212,0.17359012,0.3678905,0.14846656,0.09888308,inf,inf,inf,inf,1,1,1,1,2,0,2,1,2,1,1,1,0
15993000,15993000,5504000,40.1540302,116.25952090000001,-0.008660978,-0.0468109,-0.0829434,3.4823286e-06,0.00057932275,0.0,-0.029235177,-0.036920864,-0.056357812,0.006991436,0.01997797,-0.03899936,0.17701802,-0.018406862,-0.013627352,-0.012207031,-0.005030774,-0.12540625,49.93473,0.13407923,0.17068818,0.36217877,0.14299253,0.09979813,inf,inf,inf,inf,1,1,1,1,2,0,2,1,2,1,1,1,0
16497000,16497000,5504000,40.1540302,116.25952090000001,-0.018919725,-0.024267122,-0.022144396,3.4823286e-06,0.00057932275,0.0,-0.035634574,-0.010336465,-0.015841458,0.07806489,0.01997797,-0.03899936,0.17701802,-0.020090584,-0.0010017453,-0.0036656854,-0.0050892765,-0.12540625,49.93473,0.13055424,0.17149988,0.35723168,0.14136311,0.102074526,inf,inf,inf,inf,1,1,1,1,2,0,2,1,2,1,1,1,0
16996000,16996000,5504000,40.1540302,116.25952090000001,-0.030344851,-0.032406446,0.028136924,3.4823286e-06,0.00057932275,0.0,-0.04045623,-0.02185397,0.01160283,0.09743575,0.01997797,-0.03899936,0.17701802,-0.018172797,-0.010072644,0.0014305114,-0.0052611087,-0.12540625,49.93473,0.1,0.1692612,0.3515224,0.13733077,0.102697715,inf,inf,inf,inf,1,1,1,1,2,0,2,1,2,1,1,1,0
17496000,17496000,5504000,40.1540302,116.25952090000001,-0.04526459,-0.02729389,0.04032672,3.4823286e-06,0.00057932275,0.0,-0.051345117,-0.012238656,0.016231788,0.06610563,0.01997797,-0.03899936,0.17701802,-0.025192302,-0.0004325647,-0.00016670673,-0.0054598497,-0.12540625,49.93473,0.1,0.17044935,0.35012162,0.1347191,0.10397145,inf,inf,inf,inf,1,1,1,1,2,0,2,1,2,1,1,1,0
17995000,17995000,5504000,40.1540302,116.25952090000001,-0.06680628,-0.012968386,0.027040562,3.4823286e-06,0.00057932275,0.0,-0.06410925,-5.3542783e-05,0.006537053,0.021051351,0.01997797,-0.03899936,0.17701802,-0.026143083,0.00032957504,-0.002952665,-0.005319682,-0.12540625,49.93473,0.1,0.16905308,0.3461969,0.13103539,0.10348728,inf,inf,inf,inf,1,1,1,1,2,0,2,1,2,1,1,1,0
18496000,18496000,5504000,40.1540302,116.25952090000001,-0.077983364,-0.020957759,-0.0057954937,3.4823286e-06,0.00057932275,0.0,-0.06575869,-0.009576048,-0.005926583,-0.01748496,0.01997797,-0.03899936,0.17701802,-0.023293078,-0.0035766077,0.63404346,-0.0053758263,-0.12540625,49.93473,0.106540255,0.1690982,0.3454174,0.12853616,0.10307257,inf,inf,inf,inf,1,1,1,1,2,0,2,1,2,1,1,1,0
18993000,18993000,5504000,40.1540302,116.25952090000001,-0.0683639,-0.0066380217,0.026329715,3.4823286e-06,0.00057932275,0.0,-0.048156805,0.0045995945,-0.022840265,-0.0014103788,0.01997797,-0.03899936,0.17701802,-0.015182776,0.003604222,-0.86999524,-0.0051516234,-0.12540625,49.93473,0.106192276,0.167113,0.34193155,0.12464247,0.10140787,inf,inf,inf,inf,1,1,1,1,2,0,2,1,2,1,1,1,0
19502000,19502000,5504000,40.1540302,116.25952090000001,-0.03691505,-0.0120702125,0.026256066,3.4823286e-06,0.00057932275,0.0,-0.01767141,-0.000716795,0.021408506,0.027756099,0.01997797,-0.03899936,0.17701802,-0.0034393368,0.0060440474,5.392609,-0.0047684927,-0.12540625,49.93473,0.11069091,0.1756211,0.34392768,0.16643116,0.10294536,inf,inf,inf,inf,1,1,1,1,2,0,2,1,2,1,1,1,0
19998000,19998000,5504000,40.1540302,116.25952090000001,-0.009822718,-0.021643003,-0.010107883,3.4823286e-06,0.00057932275,0.0,-0.005492733,-0.023409339,-0.011207744,-0.03160168,0.01997797,-0.03899936,0.17701802,-0.14254922,0.0025955304,-1.2491605,-0.0030073945,-0.12540625,49.93473,0.14705487,0.17659369,0.34252885,0.18988866,0.10147887,inf,inf,inf,inf,1,1,1,1,2,0,2,1,2,1,1,1,0
20492000,20492000,5504000,40.1540302,116.25952090000001,-0.030977907,-0.0032935962,-0.23239772,3.4823286e-06,0.00057932275,0.0,-0.061963975,0.023966039,-0.4631699,-0.50181866,0.01997797,-0.03899936,0.17701802,-0.026620882,-0.019578595,0.4982938,0.0015728979,-0.12540625,49.93473,0.3693447,0.17557509,0.34190276,0.1781282,0.0995688,inf,inf,inf,inf,1,1,1,1,2,0,2,1,2,1,1,1,0
21001000,21001000,5504000,40.1540302,116.25952090000001,-0.09050517,0.04563053,-0.43768528,3.4823286e-06,0.00057932275,0.0,-0.06093249,0.026634496,-0.29329133,-0.3249903,0.01997797,-0.03899936,0.17701802,0.11307559,-0.12799782,0.19944543,0.0017660846,-0.12540625,49.93473,0.5746323,0.17602,0.34075868,0.16284505,0.09794737,inf,inf,inf,inf,1,1,1,1,2,0,2,1,2,1,1,1,0
21497000,21497000,5504000,40.1540302,116.25952090000001,-0.07899858,0.009492454,-0.5318242,3.4823286e-06,0.00057932275,0.0,0.00389256,-0.04948053,-0.2473658,-0.23706986,0.01997797,-0.03899936,0.17701802,0.023922205,-0.007446018,0.025477258,0.00062405865,-0.12540625,49.93473,0.66877115,0.17448618,0.33874878,0.14751455,0.09601244,inf,inf,inf,inf,1,1,1,1,2,0,2,1,2,1,1,1,0
22002000,22002000,5504000,40.1540302,116.25952090000001,-0.048997115,-0.06368219,-0.65037,3.4823286e-06,0.00057932275,0.0,0.017473118,-0.046927072,-0.19542976,-0.19632469,0.01997797,-0.03899936,0.17701802,-0.048922665,0.12659335,0.18489826,0.00057195046,-0.12540625,49.93473,0.787317,0.17408644,0.3390435,0.1362826,0.09468293,inf,inf,inf,inf,1,1,1,1,2,0,2,1,2,1,1,1,0
22497000,22497000,5504000,40.1540302,116.25952090000001,-0.05928031,-0.11044806,-0.74176997,3.4823286e-06,0.00057932275,0.0,-0.011413915,-0.003886854,-0.124609955,-0.13449615,0.01997797,-0.03899936,0.17701802,-0.011777557,0.15645623,0.07365346,0.00044338685,-0.12540625,49.93473,0.87871695,0.17336167,0.33782044,0.12708037,0.09341324,inf,inf,inf,inf,1,1,1,1,2,0,2,1,2,1,1,1,0
22997000,22997000,5504000,40.1540302,116.25952090000001,-0.0801558,-0.080383234,-0.78443563,3.4823286e-06,0.00057932275,0.0,-0.015487067,0.06370257,-0.099740185,-0.09415341,0.01997797,-0.03899936,0.17701802,0.026484191,0.03477526,-0.032744557,0.00046043863,-0.12540625,49.93473,0.9213826,0.17056002,0.33681944,0.119118065,0.09196972,inf,inf,inf,inf,1,1,1,1,2,0,2,1,2,1,1,1,0
23497000,23497000,5504000,40.1540302,116.25952090000001,-0.11123778,-0.041821025,-0.79868054,3.4823286e-06,0.00057932275,0.0,-0.010571464,0.058676228,-0.10482818,-0.07204648,0.01997797,-0.03899936,0.17701802,0.06629185,-0.042916913,-0.09375717,0.0004492582,-0.12540625,49.93473,0.9356275,0.17044245,0.33590966,0.11485836,0.09127623,inf,inf,inf,inf,1,1,1,1,2,0,2,1,2,1,1,1,0
24001000,24001000,5504000,40.1540302,116.25952090000001,-0.1319121,-0.016625915,-0.74841017,3.4823286e-06,0.00057932275,0.0,-0.0056189355,0.03073003,0.041352022,0.09262299,0.01997797,-0.03899936,0.17701802,0.027133752,-0.07551418,-0.24712363,0.0003961194,-0.12540625,49.93473,0.88535714,0.16990313,0.33500448,0.11152817,0.09067179,inf,inf,inf,inf,1,1,1,1,2,0,2,1,2,1,1,1,0
24501000,24501000,5504000,40.1540302,116.25952090000001,-0.1213295,-0.01839441,-0.70982134,3.4823286e-06,0.00057932275,0.0,0.015104833,-0.006864893,-0.02368965,0.032963015,0.01997797,-0.03899936,0.17701802,0.00358582,-0.026337968,-0.14272983,0.00016015011,-0.12540625,49.93473,0.8467683,0.16926502,0.33568272,0.110543475,0.090310335,inf,inf,inf,inf,1,1,1,1,2,0,2,1,2,1,1,0,0
24998000,24998000,5504000,40.1540302,116.25952090000001,-0.08963915,-0.008958615,-0.72293043,3.4823286e-06,0.00057932275,0.0,0.016043413,-0.0057072304,-0.034348175,0.0023341975,0.01997797,-0.03899936,0.17701802,-0.057661604,-0.032013454,0.0026330352,0.00024391554,-0.12540625,49.93473,0.8598774,0.16858868,0.33486837,0.10986678,0.08991509,inf,inf,inf,inf,1,1,1,1,2,0,2,1,2,1,1,0,0
25496000,25496000,5504000,40.1540302,116.25952090000001,-0.08027848,0.0024067715,-0.6963934,3.4823286e-06,0.00057932275,0.0,-0.011939305,-0.016720908,-0.059722032,0.00041949726,0.01997797,-0.03899936,0.17701802,-0.05422455,-0.055674493,-0.14361738,0.0003059795,-0.12540625,49.93473,0.83334035,0.1683218,0.33603182,0.10926842,0.08983019,inf,inf,inf,inf,1,1,1,1,2,0,2,1,2,1,1,0,0
26000000,26000000,5504000,40.1540302,116.25952090000001,-0.09060012,-0.027496677,-0.72918355,3.4823286e-06,0.00057932275,0.0,-0.023816083,-0.036797002,-0.06340702,-0.029714981,0.01997797,-0.03899936,0.17701802,-0.013333052,0.024145877,0.11402741,0.00015701116,-0.12540625,49.93473,0.86613053,0.16922352,0.33651736,0.110217474,0.089985706,inf,inf,inf,inf,1,1,1,1,2,0,2,1,2,1,1,0,0
26494000,26494000,5504000,40.1540302,116.25952090000001,-0.118142076,-0.04770714,-0.76695955,3.4823286e-06,0.00057932275,0.0,-0.032937817,-0.019202359,-0.010753676,-0.002715574,0.01997797,-0.03899936,0.17701802,0.02791124,0.03804335,0.030332059,-8.224747e-07,-0.12540625,49.93473,0.9039065,0.16760166,0.33653784,0.109815225,0.08954792,inf,inf,inf,inf,1,1,1,1,2,0,2,1,2,1,1,0,0
26988000,26988000,5504000,40.1540302,116.25952090000001,-0.16134727,-0.06768689,-0.7386944,3.4823286e-06,0.00057932275,0.0,-0.022305386,-0.0076615624,0.0181826,0.047843173,0.01997797,-0.03899936,0.17701802,0.053546336,0.02267704,0.044934448,5.647678e-05,-0.12540625,49.93473,0.8756414,0.16583894,0.33459407,0.11159802,0.08892097,inf,inf,inf,inf,1,1,1,1,2,0,2,1,2,1,1,0,0
27498000,27498000,5504000,40.1540302,116.25952090000001,-0.16297904,-0.092680134,-0.7332259,3.4823286e-06,0.00057932275,0.0,-0.0040054773,-0.0155403325,0.014437588,0.030045697,0.01997797,-0.03899936,0.17701802,0.006405949,0.025569689,-0.013702682,0.00012493912,-0.12540625,49.93473,0.87017286,0.16696487,0.33615327,0.1123919,0.089239314,inf,inf,inf,inf,1,1,1,1,2,0,2,1,2,1,1,0,0
27997000,27997000,5504000,40.1540302,116.25952090000001,-0.1725998,-0.1285951,-0.72236526,3.4823286e-06,0.00057932275,0.0,-0.0050165746,-0.019486308,0.010274558,0.02347896,0.01997797,-0.03899936,0.17701802,0.013953799,0.05145024,-0.010283663,-8.906392e-05,-0.12540625,49.93473,0.85931224,0.16594268,0.33467138,0.11236012,0.08884128,inf,inf,inf,inf,1,1,1,1,2,0,2,1,2,1,1,0,0
28497000,28497000,5504000,40.1540302,116.25952090000001,-0.17974581,-0.12009391,-0.74968356,3.4823286e-06,0.00057932275,0.0,-0.004954498,0.0039809854,0.005981655,-0.0091058565,0.01997797,-0.03899936,0.17701802,0.013505722,0.0069168936,0.025759637,-0.0002731743,-0.12540625,49.93473,0.88663054,0.16616204,0.33569518,0.11169301,0.088940404,inf,inf,inf,inf,1,1,1,1,2,0,2,1,2,1,1,0,0
28996000,28996000,5504000,40.1540302,116.25952090000001,-0.17997321,-0.10020705,-0.7830204,3.4823286e-06,0.00057932275,0.0,0.0018208226,0.010608236,0.001946031,-0.033483345,0.01997797,-0.03899936,0.17701802,0.0068152845,-0.009181956,0.04207715,-0.00043207203,-0.12540625,49.93473,0.91996735,0.16635244,0.33518595,0.11105545,0.08892732,inf,inf,inf,inf,1,1,1,1,2,0,2,1,2,1,1,0,0
29500000,29500000,5504000,40.1540302,116.25952090000001,-0.16441989,-0.065643385,-0.7715653,3.4823286e-06,0.00057932275,0.0,0.007551847,0.021204062,0.008726033,-0.00079520355,0.01997797,-0.03899936,0.17701802,-0.010902806,-0.030708257,-0.032510605,-0.0004298991,-0.12540625,49.93473,0.9085123,0.17328148,0.33775437,0.11574471,0.090636946,inf,inf,inf,inf,1,1,1,1,2,0,2,1,2,1,1,0,0
29989000,29989000,5504000,40.1540302,116.25952090000001,-0.14759612,-0.0355487,-0.7585175,3.4823286e-06,0.00057932275,0.0,0.011648712,0.016275983,0.0015103974,0.0011586057,0.01997797,-0.03899936,0.17701802,-0.019217815,-0.035472393,0.012363493,-0.0002790533,-0.12540625,49.93473,0.8954645,0.17200422,0.33623642,0.1146146,0.090239644,inf,inf,inf,inf,1,1,1,1,2,0,2,1,2,1,1,0,0
30497000,30497000,5504000,40.1540302,116.25952090000001,-0.15767924,-0.050162528,-0.74083483,3.4823286e-06,0.00057932275,0.0,-0.0048774653,-0.0068257316,0.0073789135,0.022250704,0.01997797,-0.03899936,0.17701802,0.0120994,0.015525566,-0.033426095,-0.00028564385,-0.12540625,49.93473,0.8777818,0.17231598,0.3372573,0.11400943,0.09039158,inf,inf,inf,inf,1,1,1,1,2,0,2,1,2,1,1,0,0
30997000,30997000,5504000,40.1540302,116.25952090000001,-0.14548038,-0.041490734,-0.7216679,3.4823286e-06,0.00057932275,0.0,0.0072905747,0.0043975315,0.002832234,0.022631846,0.01997797,-0.03899936,0.17701802,-0.011651466,-0.001034525,-0.004211234,-0.0002804127,-0.12540625,49.93473,0.85861486,0.1710711,0.33729663,0.11285863,0.09013902,inf,inf,inf,inf,1,1,1,1,2,0,2,1,2,1,1,0,0
31493000,31493000,5504000,40.1540302,116.25952090000001,-0.15363795,-0.013710285,-0.7006504,3.4823286e-06,0.00057932275,0.0,-0.004747266,0.012887598,0.0014504839,0.025587922,0.01997797,-0.03899936,0.17701802,0.010234329,-0.02300449,-0.0046053897,-0.00013719067,-0.12540625,49.93473,0.83759737,0.17028053,0.33585563,0.11232863,0.089861035,inf,inf,inf,inf,1,1,1,1,2,0,2,1,2,1,1,0,0
31998000,31998000,5504000,40.1540302,116.25952090000001,-0.16399728,0.01516551,-0.6987921,3.4823286e-06,0.00057932275,0.0,-0.0058133625,0.014726994,0.00060414174,0.013835536,0.01997797,-0.03899936,0.17701802,0.018635277,-0.034285735,-3.352761e-05,-5.9871967e-05,-0.12540625,49.93473,0.8357391,0.17175525,0.33596006,0.11186537,0.090210125,inf,inf,inf,inf,1,1,1,1,2,0,2,1,2,1,1,0,0
32502000,32502000,5504000,40.1540302,116.25952090000001,-0.14581127,0.020042894,-0.71796036,3.4823286e-06,0.00057932275,0.0,0.008937964,0.00089406536,0.0020831837,-0.0019153256,0.01997797,-0.03899936,0.17701802,-0.0070469463,-0.0149719855,0.0039815903,0.00012574081,-0.12540625,49.93473,0.85490733,0.17139037,0.3365707,0.11073783,0.090217866,inf,inf,inf,inf,1,1,1,1,2,0,2,1,2,1,1,0,0
33005000,33005000,5504000,40.1540302,116.25952090000001,-0.112222,0.0108348215,-0.70250064,3.4823286e-06,0.00057932275,0.0,0.014302212,-0.0042698,0.0031545463,0.012797477,0.01997797,-0.03899936,0.17701802,-0.032473728,0.001073604,-0.0153034935,0.00028480106,-0.12540625,49.93473,0.8394476,0.17099032,0.33564296,0.11021421,0.09009683,inf,inf,inf,inf,1,1,1,1,2,0,2,1,2,1,1,0,0
33497000,33497000,5504000,40.1540302,116.25952090000001,-0.11201136,-0.0024300532,-0.6827763,3.4823286e-06,0.00057932275,0.0,0.00021953978,-0.010220661,0.0037841587,0.024604142,0.01997797,-0.03899936,0.17701802,-0.0022069374,0.005523035,-0.03092438,0.0004332759,-0.12540625,49.93473,0.81972325,0.16940828,0.33533555,0.1092956,0.089752294,inf,inf,inf,inf,1,1,1,1,2,0,2,1,2,1,1,0,0
33997000,33997000,5504000,40.1540302,116.25952090000001,-0.101329915,-0.01650312,-0.7031855,3.4823286e-06,0.00057932275,0.0,0.005940022,-0.006016905,-0.006076783,-0.014137831,0.01997797,-0.03899936,0.17701802,-0.010091101,0.011644535,0.038868934,0.0005940154,-0.12540625,49.93473,0.8401325,0.17006649,0.3349666,0.10931952,0.08989495,inf,inf,inf,inf,1,1,1,1,2,0,2,1,2,1,1,0,0
34502000,34502000,5504000,40.1540302,116.25952090000001,-0.087209694,-0.031069199,-0.7621613,3.4823286e-06,0.00057932275,0.0,0.004679368,-0.009246128,-0.0059245927,-0.05372732,0.01997797,-0.03899936,0.17701802,-0.015573457,0.0147846555,0.05487427,0.0006689109,-0.12540625,49.93473,0.8991083,0.17037135,0.33612305,0.10792181,0.09010153,inf,inf,inf,inf,1,1,1,1,2,0,2,1,2,1,1,0,0
35002000,35002000,5504000,40.1540302,116.25952090000001,-0.09523918,-0.02653011,-0.7808681,3.4823286e-06,0.00057932275,0.0,-0.002577005,0.0022061549,0.0032596218,-0.032367658,0.01997797,-0.03899936,0.17701802,0.00574963,-0.0039507677,-0.009866225,0.0006823439,-0.12540625,49.93473,0.9178151,0.1696602,0.33519572,0.10712207,0.0899128,inf,inf,inf,inf,1,1,1,1,2,0,2,1,2,1,1,0,0
35498000,35498000,5504000,40.1540302,116.25952090000001,-0.08578719,-0.02408173,-0.7675948,3.4823286e-06,0.00057932275,0.0,0.0044229296,0.0016030599,0.0024292,-0.008225298,0.01997797,-0.03899936,0.17701802,-0.007463072,-0.0070451736,-0.009285659,0.0007967787,-0.12540625,49.93473,0.9045418,0.16851532,0.3353655,0.10717245,0.089696325,inf,inf,inf,inf,1,1,1,1,2,0,2,1,2,1,1,0,0
35998000,35998000,5504000,40.1540302,116.25952090000001,-0.079824686,-0.03525896,-0.7588451,3.4823286e-06,0.00057932275,0.0,0.0020868247,-0.0028693674,-0.0017396152,-0.0038916024,0.01997797,-0.03899936,0.17701802,-0.0066143507,0.005529757,0.006470829,0.00087737513,-0.12540625,49.93473,0.89579207,0.16739653,0.3340389,0.10637304,0.08935846,inf,inf,inf,inf,1,1,1,1,2,0,2,1,2,1,1,0,0
36497000,36497000,5504000,40.1540302,116.25952090000001,-0.08684086,-0.05570843,-0.7502009,3.4823286e-06,0.00057932275,0.0,-0.0038754377,-0.011767968,0.0036352368,0.011190663,0.01997797,-0.03899936,0.17701802,0.0026850132,0.015420464,-0.018221324,0.00085585495,-0.12540625,49.93473,0.8871479,0.16750857,0.33521858,0.10563855,0.08950338,inf,inf,inf,inf,1,1,1,1,2,0,2,1,2,1,1,0,0
37000000,37000000,5504000,40.1540302,116.25952090000001,-0.0924022,-0.0889163,-0.7444579,3.4823286e-06,0.00057932275,0.0,-0.0015929108,-0.016480312,-0.0015968679,0.0037292237,0.01997797,-0.03899936,0.17701802,0.0044768592,0.033962216,0.0098897135,0.0007607397,-0.12540625,49.93473,0.8814049,0.16649689,0.33391893,0.10547714,0.08918146,inf,inf,inf,inf,1,1,1,1,2,0,2,1,2,1,1,0,0
37497000,37497000,5504000,40.1540302,116.25952090000001,-0.08114781,-0.107827805,-0.7618883,3.4823286e-06,0.00057932275,0.0,0.005002436,-0.013227558,0.0013578265,-0.0057840976,0.01997797,-0.03899936,0.17701802,-0.010515532,0.026666895,0.0052433456,0.0007139163,-0.12540625,49.93473,0.8988353,0.16696858,0.335183,0.10499811,0.08940784,inf,inf,inf,inf,1,1,1,1,2,0,2,1,2,1,1,0,0
37993000,37993000,5504000,40.1540302,116.25952090000001,-0.08722048,-0.10931103,-0.6198639,3.4823286e-06,0.00057932275,0.0,-0.00565498,-0.0036183621,0.6644714,0.6741645,0.01997797,-0.03899936,0.17701802,-0.0016438948,0.01881732,1.3847638,0.0006586681,-0.12540625,49.93473,0.7568109,0.16648844,0.33437923,0.10259568,0.089257814,inf,inf,inf,inf,1,1,1,1,2,0,2,1,2,1,1,0,0
38497000,38497000,5504000,40.1540302,116.25952090000001,-0.1151826,-0.084003314,-0.2656869,3.4823286e-06,0.00057932275,0.0,-0.0051711733,0.008822515,0.57131225,0.585148,0.01997797,-0.03899936,0.17701802,0.06454009,-0.042451687,-0.024536252,0.00071042933,-0.12540625,49.93473,0.40263388,0.16649841,0.3355514,0.102459006,0.08940499,inf,inf,inf,inf,1,1,1,1,2,0,2,1,2,1,1,0,0
39005000,39005000,5504000,40.1540302,116.25952090000001,-0.10130082,-0.077315085,-0.06430243,3.4823286e-06,0.00057932275,0.0,-0.0029137263,-0.029206004,-0.29120716,-0.32067215,0.01997797,-0.03899936,0.17701802,-0.024626726,-0.020429386,-2.7974684,0.0006290697,-0.12540625,49.93473,0.2012494,0.16660057,0.33515075,0.103652075,0.08941528,inf,inf,inf,inf,1,1,1,1,2,0,2,1,2,1,1,0,0
39493000,39493000,5504000,40.1540302,116.25952090000001,-0.08943217,-0.09871576,-0.12117083,3.4823286e-06,0.00057932275,0.0,0.005075989,-0.04385194,0.06064551,0.024537481,0.01997797,-0.03899936,0.17701802,0.0036451295,-0.00033330315,7.183668,0.0005362462,-0.12540625,49.93473,0.2581178,0.16429082,0.33434024,0.11351783,0.08418073,inf,inf,inf,inf,1,1,1,1,2,0,2,1,2,1,1,0,0
40001000,40001000,5504000,40.1540302,116.25952090000001,-0.085082136,-0.11295893,-0.07134773,3.4823286e-06,0.00057932275,0.0,0.005487969,-0.05051137,0.032374844,0.057298534,0.01997797,-0.03899936,0.17701802,0.00024147371,-0.008350663,3.06435,0.00038919385,-0.12540625,49.93473,0.2082947,0.16591533,0.33423224,0.1273241,0.08156079,inf,inf,inf,inf,1,1,1,1,2,0,2,1,2,1,1,0,0
40499000,40499000,5504000,40.1540302,116.25952090000001,-0.08188789,-0.103783146,-0.010294932,3.4823286e-06,0.00057932275,0.0,0.00800553,-0.035020184,0.023218907,0.08253293,0.01997797,-0.03899936,0.17701802,0.0039338693,-0.0045380527,-0.11296347,0.0003134667,-0.12540625,49.93473,0.12008305,0.16643466,0.3345815,0.12997442,0.08059579,inf,inf,inf,inf,1,1,1,1,2,0,2,1,2,1,1,1,0
41001000,41001000,5504000,40.1540302,116.25952090000001,-0.08445851,-0.097413845,0.01199382,3.4823286e-06,0.00057932275,0.0,0.003675756,-0.02724197,0.010191888,0.050309554,0.01997797,-0.03899936,0.17701802,0.0007577996,-0.0024634276,-0.0096865,0.00025726607,-0.12540625,49.93473,0.1,0.16677015,0.33333963,0.123456046,0.08063919,inf,inf,inf,inf,1,1,1,1,2,0,2,1,2,1,1,1,0
41494000,41494000,5504000,40.1540302,116.25952090000001,-0.08351749,-0.0900559,0.023295393,3.4823286e-06,0.00057932275,0.0,0.004657542,-0.020403674,0.011195807,0.04122489,0.01997797,-0.03899936,0.17701802,0.002008183,-0.0013873731,-0.005803257,0.00023599222,-0.12540625,49.93473,0.1,0.17388536,0.33469704,0.12572409,0.08264331,inf,inf,inf,inf,1,1,1,1,2,0,2,1,2,1,1,1,0
42001000,42001000,5504000,40.1540302,116.25952090000001,-0.07208478,-0.06763532,0.0033192039,3.4823286e-06,0.00057932275,0.0,0.014486198,-0.00065179286,-0.0013015639,-0.002721232,0.01997797,-0.03899936,0.17701802,0.005742752,0.0063859313,-0.008799135,0.00025127278,-0.12540625,49.93473,0.1,0.16660145,0.33233833,0.117418565,0.08248593,inf,inf,inf,inf,1,1,1,1,2,0,2,1,2,1,1,1,0
42497000,42497000,5504000,40.1540302,116.25952090000001,-0.066636674,-0.0559943,0.0045167026,3.4823286e-06,0.00057932275,0.0,0.015885113,0.0045794994,-0.001038605,0.0032169104,0.01997797,-0.03899936,0.17701802,0.0037418553,0.004023481,-0.0053551043,0.00030870584,-0.12540625,49.93473,0.10472487,0.17403406,0.3341698,0.120994925,0.085211396,inf,inf,inf,inf,1,1,1,1,2,0,2,1,2,1,1,1,0
42997000,42997000,5504000,40.1540302,116.25952090000001,-0.07540923,-0.05183372,0.024533654,3.4823286e-06,0.00057932275,0.0,0.0062444736,0.0054884395,0.0061975024,0.023170566,0.01997797,-0.03899936,0.17701802,3.2098793e-05,0.004484724,-0.0042319293,0.0003275884,-0.12540625,49.93473,0.10157172,0.17351755,0.33304378,0.11839572,0.08633892,inf,inf,inf,inf,1,1,1,1,2,0,2,1,2,1,1,1,0
