timestamp,timestamp_sample,ref_timestamp,ref_lat,ref_lon,x,y,z,delta_xy[0],delta_xy[1],delta_z,vx,vy,vz,z_deriv,delta_vxy[0],delta_vxy[1],delta_vz,ax,ay,az,heading,delta_heading,ref_alt,dist_bottom,eph,epv,evh,evv,vxy_max,vz_max,hagl_min,hagl_max,xy_valid,z_valid,v_xy_valid,v_z_valid,xy_reset_counter,z_reset_counter,vxy_reset_counter,vz_reset_counter,heading_reset_counter,xy_global,z_global,dist_bottom_valid,dist_bottom_sensor_bitfield
756000,756000,0,nan,nan,-2.0075306e-19,3.4784136e-18,7.928256e-08,0.0,0.0,0.0,-3.3295545e-17,6.3927445e-16,2.6662416e-05,2.6851903e-05,-5.551115e-17,8.881784e-16,0.0,4.1633363e-15,-4.440892e-14,0.0049717724,0.121145904,0.121145904,nan,0.100000404,0.70622146,3.5000029,7.071068,0.45001808,inf,inf,inf,inf,0,1,0,1,1,0,1,0,1,0,0,1,2
992000,992000,0,nan,nan,1.6410437e-16,-1.956074e-15,-0.001609929,0.0,0.0,0.0,1.342085e-15,-1.6189713e-14,0.0015275397,-0.00015812651,-5.551115e-17,8.881784e-16,0.0,6.9388935e-15,-6.938893e-14,0.0049686055,0.121145904,0.121145904,nan,0.1,0.6895805,1.5660043,4.5268345,0.4519697,inf,inf,inf,inf,0,1,0,1,1,0,1,0,1,0,0,1,2
1492000,1492000,0,nan,nan,3.9809397e-15,-3.7280326e-14,-0.012104274,0.0,0.0,0.0,1.9239943e-14,-1.7187861e-13,0.004112911,-0.006661177,-5.551115e-17,8.881784e-16,0.0,7.285838e-14,-6.106226e-13,0.0049369405,0.121145904,0.121145904,nan,0.1,0.77241963,0.91743916,1.873647,0.46765932,inf,inf,inf,inf,0,1,0,1,1,0,1,0,1,0,0,1,2
1996000,1996000,0,nan,nan,3.8277787e-15,-3.7608022e-14,-0.011505964,0.0,0.0,0.0,1.2292226e-14,-1.1386038e-13,0.0067299157,-0.0011410678,-5.551115e-17,8.881784e-16,0.0,-3.6082248e-14,2.7755576e-13,0.004990399,0.121145904,0.121145904,nan,0.10082561,0.519984,0.75333714,1.2043922,0.49526274,inf,inf,inf,inf,0,1,0,1,1,0,1,0,1,0,0,1,2
2496000,2496000,0,nan,nan,1.0295152e-15,-1.3012665e-14,-0.007433816,0.0,0.0,0.0,-2.6447814e-14,2.0740451e-13,0.009366853,0.005054135,-5.551115e-17,8.881784e-16,0.0,-1.7347233e-13,1.4155342e-12,0.005054287,0.121145904,0.121145904,nan,0.101588115,0.6096288,0.7253408,1.4949461,0.5259469,inf,inf,inf,inf,0,1,0,1,1,0,1,0,1,0,0,1,2
3000000,3000000,0,nan,nan,-1.6280844e-14,1.3142701e-13,-0.00154545,0.0,0.0,0.0,-3.391688e-14,2.7456173e-13,0.011971126,0.009850166,-5.551115e-17,8.881784e-16,0.0,-2.151057e-13,1.7624789e-12,0.005073845,0.121145904,0.121145904,nan,0.1008994,0.7471518,0.7348521,1.6504991,0.5445523,inf,inf,inf,inf,0,1,0,1,1,0,1,0,1,0,0,1,2
3504000,3504000,0,nan,nan,-1.909043e-14,1.6003416e-13,0.003118004,0.0,0.0,0.0,3.030698e-14,-2.4346497e-13,0.0132322945,0.009794999,-5.551115e-17,8.881784e-16,0.0,1.1005086e-12,-9.05942e-12,0.004451722,0.121145904,0.121145904,nan,0.1,0.57876456,0.7735305,1.2515166,0.5532568,inf,inf,inf,inf,0,1,0,1,1,0,1,0,1,0,0,1,2
3996000,3996000,0,nan,nan,-7.204072e-14,5.972473e-13,8.670267e-05,0.0,0.0,0.0,1.2228002e-13,-9.997267e-13,0.010852341,0.0021946686,-5.551115e-17,8.881784e-16,0.0,3.0652562e-12,-2.5188183e-11,0.0035185365,0.121145904,0.121145904,nan,0.1,0.64516926,0.8050181,1.2420673,0.54839724,inf,inf,inf,inf,0,1,0,1,1,0,1,0,1,0,0,1,2
4496000,4484000,0,nan,nan,-2.66265e-13,2.188124e-12,-0.0028156952,0.0,0.0,0.0,5.770489e-14,-4.809394e-13,0.008820787,-0.001885649,-5.551115e-17,8.881784e-16,0.0,5.218048e-12,-4.2891617e-11,0.002498428,0.121145904,0.121145904,nan,0.10096345,0.5064077,0.8028198,0.97915655,0.52464277,inf,inf,inf,inf,0,1,0,1,1,0,1,0,1,0,0,1,2
4999000,4992000,0,nan,nan,-3.4166726e-13,-1.6281573e-11,-0.0047241235,0.0,0.0,0.0,2.2538021e-13,-3.182089e-09,0.0072382535,-0.0040611117,-5.551115e-17,8.881784e-16,0.0,5.651035e-12,-4.644063e-11,0.0022940338,0.121145904,0.121145904,nan,0.1,0.5735622,0.79935706,1.0140967,0.5000204,inf,inf,inf,inf,0,1,0,1,1,0,1,0,1,0,0,1,2
5488000,5480000,0,nan,nan,5.6562862e-11,-1.14109025e-05,-0.010933577,0.0,0.0,0.0,4.1340345e-10,-6.442045e-05,0.0039974432,-0.009382178,-5.551115e-17,8.881784e-16,0.0,1.8982842e-09,-0.00020975388,0.0014670193,0.121163934,0.121145904,nan,0.1,0.6276281,0.8030668,1.00809,0.48129487,inf,inf,inf,inf,0,1,0,1,1,0,1,0,1,0,0,1,2
6008000,5995000,5596000,40.1540302,116.2594857,1.0363543e-09,-8.54823e-05,-0.0187021,0.0,0.0,0.0,4.0422887e-09,-0.00027129118,0.00050529465,-0.014072649,-5.551115e-17,8.881784e-16,0.0,9.36604e-09,-0.00046322102,0.0025890765,0.1211882,0.121145904,49.917244,0.10071819,0.5214826,0.80908585,0.8162897,0.46427745,inf,inf,inf,inf,0,1,0,1,1,0,1,0,1,1,1,1,0
6500000,6492000,5596000,40.1540302,116.2594857,3.929946e-09,-0.00020835777,-0.016650593,0.0,0.0,0.0,1.1333466e-08,-0.00051216723,0.0018433526,-0.0050777053,-5.551115e-17,8.881784e-16,0.0,1.858461e-08,-0.00064715504,0.0013902783,0.12121123,0.121145904,49.917244,0.104314044,0.57038474,0.7885709,0.8128544,0.43888608,inf,inf,inf,inf,0,1,0,1,1,0,1,0,1,1,1,1,0
7003000,6991000,5596000,40.1540302,116.2594857,-3.8438175e-06,-0.00034520583,-0.011876464,0.0,0.0,0.0,-2.7615586e-05,-0.00073194323,0.0037359498,0.0016954325,-5.551115e-17,8.881784e-16,0.0,-8.831707e-05,-0.000773833,0.0023309675,-0.0041573215,-0.12538788,49.917244,0.10131508,0.46030456,0.7828816,0.55769914,0.42076558,inf,inf,inf,inf,0,1,0,1,1,0,1,0,2,1,1,1,0
7497000,7488000,5596000,40.1540302,116.2594857,-2.554316e-05,-0.0004907296,-0.011445848,0.0,0.0,0.0,-6.845143e-05,-0.0009866849,0.003475153,0.0002589896,-5.551115e-17,8.881784e-16,0.0,-7.74408e-05,-0.0009587597,0.00051688397,-0.004160843,-0.12538788,49.917244,0.1,0.46850547,0.7798455,0.5389947,0.40421686,inf,inf,inf,inf,0,1,0,1,1,0,1,0,2,1,1,1,0
8001000,7984000,5596000,40.1540302,116.2594857,-4.694575e-05,-0.0006911475,-0.008130605,0.0,0.0,0.0,-8.5950414e-05,-0.0012575506,0.004711491,0.0043017636,-5.551115e-17,8.881784e-16,0.0,-5.6050856e-05,-0.0010501115,0.0016242266,-0.004163446,-0.12538788,49.917244,0.1015802,0.4085885,0.75891614,0.5551718,0.38213947,inf,inf,inf,inf,0,1,0,1,1,0,1,0,2,1,1,1,0
8496000,8496000,5596000,40.1540302,116.2594857,-5.2984877e-05,-0.00083928765,-0.0022065581,0.0,0.0,0.0,-7.084553e-05,-0.001355116,0.0064986423,0.008197862,-5.551115e-17,8.881784e-16,0.0,-1.8422304e-05,-0.00096357503,0.00016484408,-0.0041597965,-0.12538788,49.917244,0.10037645,0.45269933,0.7559864,0.6029981,0.3670885,inf,inf,inf,inf,0,1,0,1,1,0,1,0,2,1,1,1,0
8995000,8995000,5596000,40.1540302,116.2594857,-3.6495614e-05,-0.00082793634,0.0005288301,0.0,0.0,0.0,-3.0481264e-05,-0.0012543024,0.0068040807,0.006540225,-5.551115e-17,8.881784e-16,0.0,1.7282588e-05,-0.0008474081,0.0023224524,-0.004150286,-0.12538788,49.917244,0.1,0.50617146,0.7400606,0.6012927,0.34808904,inf,inf,inf,inf,0,1,0,1,1,0,1,0,2,1,1,1,0
9495000,9495000,5596000,40.1540302,116.2594857,-8.781644e-06,-0.000724016,-0.0025399427,0.0,0.0,0.0,1.3250223e-05,-0.001102271,0.0050883563,2.2212567e-05,-5.551115e-17,8.881784e-16,0.0,4.1245294e-05,-0.00077907817,0.0021915352,-0.0041390806,-0.12538788,49.917244,0.10001595,0.43808478,0.7192878,0.48225,0.32877296,inf,inf,inf,inf,0,1,0,1,1,0,1,0,2,1,1,1,0
10000000,10000000,5596000,40.1540302,116.2594857,1.8099987e-05,-0.00065436726,0.0011016375,0.0,0.0,0.0,4.7411544e-05,-0.001050471,0.0059966506,0.003793639,-5.551115e-17,8.881784e-16,0.0,5.5020522e-05,-0.00078527286,0.00046845523,-0.004129295,-0.12538788,49.917244,0.10076516,0.4664916,0.72278386,0.44223842,0.31723535,inf,inf,inf,inf,0,1,0,1,1,0,1,0,2,1,1,1,0
10500000,10500000,5596000,40.1540302,116.2594857,-0.023087656,0.021465655,0.032938283,-4.834085e-06,0.00039730265,0.0,-0.041134823,0.04137081,0.070215195,0.049327336,-0.09003499,0.0608675,0.10378271,0.0064002126,-0.0033037781,-0.001550652,-0.0041440967,-0.12538788,49.917244,0.1,0.25958717,0.61601967,0.18074049,0.15870105,inf,inf,inf,inf,1,1,1,1,2,0,2,1,2,1,1,1,0
11000000,11000000,5596000,40.1540302,116.2594857,-0.008825674,0.025395215,0.0014547566,-4.834085e-06,0.00039730265,0.0,0.0016911675,0.026490912,0.01613167,-0.030405194,-0.09003499,0.0608675,0.10378271,0.024881868,-0.009980572,-0.00023655592,-0.004224326,-0.12538788,49.917244,0.1,0.2120171,0.55171275,0.17348933,0.12897076,inf,inf,inf,inf,1,1,1,1,2,0,2,1,2,1,1,1,0
11495000,11495000,5596000,40.1540302,116.2594857,0.011184848,0.03127485,0.0050925463,-4.834085e-06,0.00039730265,0.0,0.03125503,0.026126618,0.014748966,-0.012669105,-0.09003499,0.0608675,0.10378271,0.03664347,-0.005261475,-0.0011686768,-0.004144618,-0.12538788,49.917244,0.1,0.19181667,0.5069225,0.18005505,0.11554642,inf,inf,inf,inf,1,1,1,1,2,0,2,1,2,1,1,1,0
11996000,11996000,5596000,40.1540302,116.2594857,0.0037618084,-0.0008572085,0.024622682,-4.834085e-06,0.00039730265,0.0,0.00931417,-0.03419223,0.020976579,0.018963456,-0.09003499,0.0608675,0.10378271,0.003976114,-0.052608944,0.0008735805,-0.005312121,-0.12538788,49.917244,0.123694316,0.18209933,0.4694913,0.17812806,0.10908044,inf,inf,inf,inf,1,1,1,1,2,0,2,1,2,1,1,1,0
12500000,12500000,5596000,40.1540302,116.2594857,-0.0121099055,-0.014575661,0.031788897,-4.834085e-06,0.00039730265,0.0,-0.009574953,-0.038511883,0.019768184,0.009602753,-0.09003499,0.0608675,0.10378271,-0.006562641,-0.031570952,0.00025518236,-0.0066208434,-0.12538788,49.917244,0.1,0.17682293,0.44132906,0.17039925,0.10621025,inf,inf,inf,inf,1,1,1,1,2,0,2,1,2,1,1,1,0
13000000,13000000,5596000,40.1540302,116.2594857,0.0043700775,-0.012788857,0.050981224,-4.834085e-06,0.00039730265,0.0,0.017467814,-0.028790353,0.025741834,0.02345885,-0.09003499,0.0608675,0.10378271,0.016030293,-0.019535363,0.0010803342,-0.0071573216,-0.12538788,49.917244,0.1039654,0.17465818,0.42326695,0.16412115,0.105627246,inf,inf,inf,inf,1,1,1,1,2,0,2,1,2,1,1,1,0
13500000,13500000,5596000,40.1540302,116.2594857,-0.0006268596,-0.009604909,0.03634428,-4.834085e-06,0.00039730265,0.0,0.0049510775,-0.021472078,0.014927669,-0.01494678,-0.09003499,0.0608675,0.10378271,0.0010999189,-0.013781885,-0.00985898,-0.007279473,-0.12538788,49.917244,0.1,0.17271511,0.40586683,0.15694572,0.10512378,inf,inf,inf,inf,1,1,1,1,2,0,2,1,2,1,1,1,0
13995000,13995000,5596000,40.1540302,116.2594857,0.008705498,-0.013884183,-0.039480355,-4.834085e-06,0.00039730265,0.0,0.016180584,-0.022979321,-0.021239098,-0.090092696,-0.09003499,0.0608675,0.10378271,0.00996335,-0.0119063575,-0.005271818,-0.0072863954,-0.12538788,49.917244,0.115123644,0.17060174,0.39396107,0.1504248,0.10457436,inf,inf,inf,inf,1,1,1,1,2,0,2,1,2,1,1,1,0
14492000,14492000,5596000,40.1540302,116.2594857,0.02609399,-0.016302207,-0.037655894,-4.834085e-06,0.00039730265,0.0,0.032191727,-0.019268492,-0.020161308,-0.051348276,-0.09003499,0.0608675,0.10378271,0.017117145,-0.004278433,-0.009989738,-0.0071826256,-0.12538788,49.917244,0.1,0.16986892,0.38269693,0.14633076,0.10399572,inf,inf,inf,inf,1,1,1,1,2,0,2,1,2,1,1,1,0
15000000,15000000,5596000,40.1540302,116.2594857,0.03633726,-0.010508218,-0.07380619,-4.834085e-06,0.00039730265,0.0,0.03610606,-0.008619606,-0.038735587,-0.07306869,-0.09003499,0.0608675,0.10378271,0.014464712,0.00040125003,-0.01564063,-0.006799349,-0.12538788,49.917244,0.1,0.1700926,0.37626794,0.14412478,0.10361301,inf,inf,inf,inf,1,1,1,1,2,0,2,1,2,1,1,1,0
15500000,15500000,5596000,40.1540302,116.2594857,0.060940262,-0.006894157,-0.10806367,-4.834085e-06,0.00039730265,0.0,0.05715956,-0.0025597468,-0.053376455,-0.08129408,-0.09003499,0.0608675,0.10378271,0.025527367,0.0030582936,-0.019314697,-0.00632354,-0.12538788,49.917244,0.100350425,0.16945168,0.3685878,0.14102378,0.10244083,inf,inf,inf,inf,1,1,1,1,2,0,2,1,2,1,1,1,0
15992000,15992000,5596000,40.1540302,116.2594857,0.067547604,-0.0037660203,-0.14045437,-4.834085e-06,0.00039730265,0.0,0.053671278,0.0006979241,-0.065793544,-0.08425084,-0.09003499,0.0608675,0.10378271,0.01773846,0.0027872422,-0.009064562,-0.00572793,-0.12538788,49.917244,0.11053341,0.17701769,0.36453068,0.1475566,0.10349575,inf,inf,inf,inf,1,1,1,1,2,0,2,1,2,1,1,1,0
16496000,16496000,5596000,40.1540302,116.2594857,0.05743068,-0.016441723,-0.1420593,-4.834085e-06,0.00039730265,0.0,0.03442182,-0.009441778,-0.062145296,-0.05060692,-0.09003499,0.0608675,0.10378271,0.004379038,0.0015718221,-0.006289221,-0.005518672,-0.12538788,49.917244,0.118840314,0.17621547,0.3609925,0.143526,0.1020457,inf,inf,inf,inf,1,1,1,1,2,0,2,1,2,1,1,1,0
17000000,17000000,5596000,40.1540302,116.2594857,0.01896096,-0.024002004,-0.13407516,-4.834085e-06,0.00039730265,0.0,-0.0051578167,-0.014725477,-0.054277368,-0.017544312,-0.09003499,0.0608675,0.10378271,-0.010528878,-0.003353697,-0.011691823,-0.0053049535,-0.12538788,49.917244,0.12934999,0.17634067,0.35679966,0.14144169,0.10057187,inf,inf,inf,inf,1,1,1,1,2,0,2,1,2,1,1,1,0
17500000,17500000,5596000,40.1540302,116.2594857,0.0016609589,-0.04086425,-0.10150456,-4.834085e-06,0.00039730265,0.0,-0.016284984,-0.028329877,-0.036983997,0.020862974,-0.09003499,0.0608675,0.10378271,-0.010779157,-0.008036159,-0.0026226044,-0.005323706,-0.12538788,49.917244,0.10781928,0.1757333,0.35449693,0.13826771,0.09899436,inf,inf,inf,inf,1,1,1,1,2,0,2,1,2,1,1,1,0
18001000,18001000,5596000,40.1540302,116.2594857,-0.00827072,-0.029787395,-0.0597442,-4.834085e-06,0.00039730265,0.0,-0.02252158,-0.010755055,-0.016359268,0.06257959,-0.09003499,0.0608675,0.10378271,-0.012786324,0.0045496915,-0.0017233193,-0.00528536,-0.12538788,49.917244,0.12784705,0.17501052,0.35260943,0.13455425,0.097398415,inf,inf,inf,inf,1,1,1,1,2,0,2,1,2,1,1,1,0
18493000,18493000,5596000,40.1540302,116.2594857,-0.024576722,-0.02460036,0.022653146,-4.834085e-06,0.00039730265,0.0,-0.03534297,-0.007875514,0.019518062,0.12667169,-0.09003499,0.0608675,0.10378271,-0.018005159,0.00033516352,0.003042072,-0.0050402298,-0.12538788,49.917244,0.11546393,0.17363836,0.3488356,0.1313487,0.09553171,inf,inf,inf,inf,1,1,1,1,2,0,2,1,2,1,1,1,0
18995000,18995000,5596000,40.1540302,116.2594857,-0.03122651,-0.034412786,0.052297413,-4.834085e-06,0.00039730265,0.0,-0.035996128,-0.016671102,0.027868103,0.098121084,-0.09003499,0.0608675,0.10378271,-0.0150505565,-0.002530018,0.003071768,-0.0049820603,-0.12538788,49.917244,0.1,0.17324011,0.34774864,0.1289689,0.094226524,inf,inf,inf,inf,1,1,1,1,2,0,2,1,2,1,1,1,0
19500000,19500000,5596000,40.1540302,116.2594857,-0.054898612,-0.016040698,0.052050035,-4.834085e-06,0.00039730265,0.0,-0.053737614,0.0036290474,0.024891498,0.05380064,-0.09003499,0.0608675,0.10378271,-0.02256192,0.008506923,0.0008441508,-0.0048432085,-0.12538788,49.917244,0.1,0.17197673,0.3464071,0.12604351,0.09291611,inf,inf,inf,inf,1,1,1,1,2,0,2,1,2,1,1,1,0
20000000,20000000,5596000,40.1540302,116.2594857,-0.069702975,-0.01687869,0.021586252,-4.834085e-06,0.00039730265,0.0,-0.059408106,-0.0012050818,0.010082131,-0.0037889672,-0.09003499,0.0608675,0.10378271,-0.021310596,0.0017108845,0.00025611368,-0.0046455977,-0.12538788,49.917244,0.1,0.17215908,0.34464663,0.124004416,0.09204351,inf,inf,inf,inf,1,1,1,1,2,0,2,1,2,1,1,1,0
20496000,20496000,5596000,40.1540302,116.2594857,-0.073154464,-0.010512014,0.014755401,-4.834085e-06,0.00039730265,0.0,-0.055471335,0.005836698,0.008368535,-0.0007948838,-0.09003499,0.0608675,0.10378271,-0.017586855,0.0074037886,-0.0002980232,-0.0045469203,-0.12538788,49.917244,0.109336935,0.17145184,0.34253812,0.1219816,0.091145195,inf,inf,inf,inf,1,1,1,1,2,0,2,1,2,1,1,1,0
21000000,21000000,5596000,40.1540302,116.2594857,-0.050708245,-0.008821194,0.045958668,-4.834085e-06,0.00039730265,0.0,-0.029830817,0.004164525,0.019928785,0.031704042,-0.09003499,0.0608675,0.10378271,-0.0060275244,0.0029772166,0.0026151538,-0.0043463293,-0.12538788,49.917244,0.1,0.17014125,0.3417575,0.12003484,0.09039676,inf,inf,inf,inf,1,1,1,1,2,0,2,1,2,1,1,1,0
21504000,21504000,5596000,40.1540302,116.2594857,-0.025224451,-0.0074330117,0.014453584,-4.834085e-06,0.00039730265,0.0,-0.008679983,0.0047048107,-0.0038795907,-0.026974672,-0.09003499,0.0608675,0.10378271,-0.001594093,0.004821729,-0.38733706,-0.004152648,-0.12538788,49.917244,0.1,0.17097072,0.34064606,0.11999627,0.09017633,inf,inf,inf,inf,1,1,1,1,2,0,2,1,2,1,1,1,0
22003000,22003000,5596000,40.1540302,116.2594857,-0.004967494,-0.016876211,0.016701454,-4.834085e-06,0.00039730265,0.0,0.0063086427,-0.002961542,0.024625013,0.01686116,-0.09003499,0.0608675,0.10378271,-0.0035732589,0.009651441,5.9431047,-0.003933106,-0.12538788,49.917244,0.109513484,0.17105871,0.34116262,0.13111162,0.09007123,inf,inf,inf,inf,1,1,1,1,2,0,2,1,2,1,1,1,0
22508000,22508000,5596000,40.1540302,116.2594857,-0.020548582,0.017029492,0.0008187782,-4.834085e-06,0.00039730265,0.0,-0.030070947,0.045454025,0.0035644262,-0.015056314,-0.09003499,0.0608675,0.10378271,-0.053370297,0.0031793835,3.2467835,-0.003226469,-0.12538788,49.917244,0.12539616,0.17058368,0.33959168,0.17357804,0.0896798,inf,inf,inf,inf,1,1,1,1,2,0,2,1,2,1,1,1,0
23000000,23000000,5596000,40.1540302,116.2594857,-0.030651623,0.044224113,-0.11012224,-4.834085e-06,0.00039730265,0.0,-0.02144011,0.0014788712,-0.47934595,-0.5232972,-0.09003499,0.0608675,0.10378271,0.0035555398,-0.14941557,-0.97652304,0.0004997053,-0.12538788,49.917244,0.23633718,0.1701512,0.3392376,0.1760895,0.08935641,inf,inf,inf,inf,1,1,1,1,2,0,2,1,2,1,1,1,0
23500000,23500000,5596000,40.1540302,116.2594857,-0.006333111,-0.035154395,-0.35005605,-4.834085e-06,0.00039730265,0.0,-0.0038559358,-0.06996198,-0.35932657,-0.39588118,-0.09003499,0.0608675,0.10378271,-0.05757193,0.1064101,0.26602298,0.0026486488,-0.12538788,49.917244,0.47627097,0.17132208,0.33833572,0.1643643,0.08933668,inf,inf,inf,inf,1,1,1,1,2,0,2,1,2,1,1,1,0
24004000,24004000,5596000,40.1540302,116.2594857,-0.0050687245,-0.09331521,-0.52424556,-4.834085e-06,0.00039730265,0.0,-0.033414986,-0.026784694,-0.24648225,-0.28517446,-0.09003499,0.0608675,0.10378271,-0.0570365,0.15530133,0.25510266,0.0015473256,-0.12538788,49.917244,0.6504605,0.17116192,0.33852708,0.15002182,0.08925309,inf,inf,inf,inf,1,1,1,1,2,0,2,1,2,1,1,1,0
24495000,24495000,5596000,40.1540302,116.2594857,-0.03887017,-0.10247312,-0.62616664,-4.834085e-06,0.00039730265,0.0,-0.0444837,0.040503338,-0.18095872,-0.20251745,-0.09003499,0.0608675,0.10378271,0.031973217,0.12654133,0.109898195,0.0005199596,-0.12538788,49.917244,0.75238156,0.16996697,0.3382668,0.13720559,0.08900286,inf,inf,inf,inf,1,1,1,1,2,0,2,1,2,1,1,1,0
25000000,25000000,5596000,40.1540302,116.2594857,-0.07234572,-0.042339016,-0.6878043,-4.834085e-06,0.00039730265,0.0,-0.029610602,0.07648924,-0.15795477,-0.15355204,-0.09003499,0.0608675,0.10378271,0.065925,-0.044951987,0.055389106,0.00045959852,-0.12538788,49.917244,0.8140192,0.17036904,0.33749285,0.12816893,0.089064635,inf,inf,inf,inf,1,1,1,1,2,0,2,1,2,1,1,1,0
25504000,25504000,5596000,40.1540302,116.2594857,-0.106381305,-0.008699766,-0.7163551,-4.834085e-06,0.00039730265,0.0,-0.0062569804,0.042057555,-0.15633027,-0.11658738,-0.09003499,0.0608675,0.10378271,0.10395116,-0.061906554,-0.021287054,0.0001474701,-0.12538788,49.917244,0.84257,0.1689387,0.33579642,0.11990032,0.08873291,inf,inf,inf,inf,1,1,1,1,2,0,2,1,2,1,1,1,0
26000000,26000000,5596000,40.1540302,116.2594857,-0.10717447,0.012736004,-0.76584977,-4.834085e-06,0.00039730265,0.0,0.030510914,0.015496459,-0.13745393,-0.09637085,-0.09003499,0.0608675,0.10378271,0.0646187,-0.0732206,0.055296343,-0.00022925784,-0.12538788,49.917244,0.8920647,0.16828105,0.3362331,0.114169426,0.08875483,inf,inf,inf,inf,1,1,1,1,2,0,2,1,2,1,1,1,0
26491000,26491000,5596000,40.1540302,116.2594857,-0.060399212,0.0121103525,-0.7545885,-4.834085e-06,0.00039730265,0.0,0.050528582,-0.0015736632,0.094405316,0.1517692,-0.09003499,0.0608675,0.10378271,-0.09422578,0.00011147949,0.11665653,-0.00055182417,-0.12538788,49.917244,0.8808034,0.17509694,0.33711678,0.11486603,0.09039015,inf,inf,inf,inf,1,1,1,1,2,0,2,1,2,1,1,1,0
27000000,27000000,5596000,40.1540302,116.2594857,-0.025720336,0.038219813,-0.6999662,-4.834085e-06,0.00039730265,0.0,0.006725588,0.00660696,0.013150546,0.06678279,-0.09003499,0.0608675,0.10378271,-0.1138758,-0.05668529,-0.14829914,-0.0008317949,-0.12538788,49.917244,0.8261811,0.1671093,0.3360705,0.106900886,0.088794306,inf,inf,inf,inf,1,1,1,1,2,0,2,1,2,1,1,0,0
27500000,27500000,5596000,40.1540302,116.2594857,-0.037009295,0.037296396,-0.66862065,-4.834085e-06,0.00039730265,0.0,-0.03481471,-0.02179429,-0.051643506,0.008817377,-0.09003499,0.0608675,0.10378271,-0.040952027,-0.038251,-0.06841495,-0.001128753,-0.12538788,49.917244,0.79483557,0.16570507,0.33458826,0.10540705,0.08851175,inf,inf,inf,inf,1,1,1,1,2,0,2,1,2,1,1,0,0
27996000,27996000,5596000,40.1540302,116.2594857,-0.05363391,0.0067413915,-0.717802,-4.834085e-06,0.00039730265,0.0,-0.038621098,-0.028077982,-0.02790202,-0.015498848,-0.09003499,0.0608675,0.10378271,-0.0026300717,0.03475839,0.13837442,-0.0014226062,-0.12538788,49.917244,0.8440169,0.17205495,0.33715063,0.10920335,0.09030218,inf,inf,inf,inf,1,1,1,1,2,0,2,1,2,1,1,0,0
28496000,28496000,5596000,40.1540302,116.2594857,-0.09884832,-0.0137032885,-0.7143572,-4.834085e-06,0.00039730265,0.0,-0.04155915,-0.013187724,-0.009259509,0.0092533175,-0.09003499,0.0608675,0.10378271,0.072526656,0.04589186,-0.11366755,-0.0017210392,-0.12538788,49.917244,0.8405721,0.1711267,0.3361757,0.10839138,0.09015508,inf,inf,inf,inf,1,1,1,1,2,0,2,1,2,1,1,0,0
28996000,28996000,5596000,40.1540302,116.2594857,-0.117125385,-0.026444424,-0.7223367,-4.834085e-06,0.00039730265,0.0,0.003778975,0.0077794404,-0.03245866,-0.019945145,-0.09003499,0.0608675,0.10378271,0.07336176,0.043280743,0.087193206,-0.0014882697,-0.12538788,49.917244,0.84855163,0.17031306,0.33671707,0.10868759,0.09010659,inf,inf,inf,inf,1,1,1,1,2,0,2,1,2,1,1,0,0
29500000,29500000,5596000,40.1540302,116.2594857,-0.1114881,-0.04911581,-0.7295332,-4.834085e-06,0.00039730265,0.0,0.021991577,0.01423577,-0.016900897,-0.0054679792,-0.09003499,0.0608675,0.10378271,0.025594024,0.079697944,0.0064782794,-0.0009480515,-0.12538788,49.917244,0.8557481,0.17048976,0.33619055,0.10959144,0.09015643,inf,inf,inf,inf,1,1,1,1,2,0,2,1,2,1,1,0,0
30002000,30002000,5596000,40.1540302,116.2594857,-0.14849177,-0.05161433,-0.74109024,-4.834085e-06,0.00039730265,0.0,-0.24050218,0.023154017,0.008608393,0.005696781,-0.09003499,0.0608675,0.10378271,0.06694172,-0.020096544,-0.012073666,-0.000626847,-0.12538788,49.917244,0.86730516,0.17022571,0.33675644,0.11009665,0.0901778,inf,inf,inf,inf,1,1,1,1,2,0,2,1,2,1,1,0,0
30496000,30496000,5596000,40.1540302,116.2594857,-0.11722794,-0.031635534,-0.7617976,-4.834085e-06,0.00039730265,0.0,-0.008654459,0.017840879,0.010826739,-0.010917625,-0.09003499,0.0608675,0.10378271,3.5980716,-0.016951157,0.014353543,-0.00039217918,-0.12538788,49.917244,0.8880125,0.16922276,0.33681333,0.10952026,0.0899642,inf,inf,inf,inf,1,1,1,1,2,0,2,1,2,1,1,0,0
31000000,31000000,5596000,40.1540302,116.2594857,0.055232916,-0.010625141,-0.7879216,-4.834085e-06,0.00039730265,0.0,0.18361138,0.015615909,0.008547985,-0.023187792,-0.09003499,0.0608675,0.10378271,1.7755541,-0.012878382,-0.11485535,4.1184136e-05,-0.12538788,49.917244,0.9141365,0.16898935,0.3358038,0.110286675,0.08981023,inf,inf,inf,inf,1,1,1,1,2,0,2,1,2,1,1,0,0
31496000,31496000,5596000,40.1540302,116.2594857,0.08682617,0.025300428,-0.75401783,-4.834085e-06,0.00039730265,0.0,0.100334965,0.020869879,0.01180437,0.016296605,-0.09003499,0.0608675,0.10378271,-1.042664,-0.0322466,-0.001114793,0.00072010554,-0.12538788,49.917244,0.88023275,0.16880797,0.3363817,0.10970721,0.089797355,inf,inf,inf,inf,1,1,1,1,2,0,2,1,2,1,1,0,0
31996000,31996000,5596000,40.1540302,116.2594857,0.08699694,0.030815477,-0.75303656,-4.834085e-06,0.00039730265,0.0,0.051914155,0.0012221144,0.009791864,0.009706532,-0.09003499,0.0608675,0.10378271,0.4238041,-0.006772006,-0.013477355,0.0011333715,-0.12538788,49.917244,0.8792515,0.1684912,0.33542347,0.10920087,0.08964891,inf,inf,inf,inf,1,1,1,1,2,0,2,1,2,1,1,0,0
32492000,32492000,5596000,40.1540302,116.2594857,-0.015616812,0.020591158,-0.7160239,-4.834085e-06,0.00039730265,0.0,0.03338845,-0.002652649,0.008441723,0.032446668,-0.09003499,0.0608675,0.10378271,1.4187256,0.01613843,-0.034142286,0.0013674182,-0.12538788,49.917244,0.84223884,0.16823824,0.33603242,0.10892308,0.0896465,inf,inf,inf,inf,1,1,1,1,2,0,2,1,2,1,1,0,0
32996000,32996000,5596000,40.1540302,116.2594857,-0.13797905,0.0388949,-0.6956869,-4.834085e-06,0.00039730265,0.0,0.051714472,0.008663134,0.008801364,0.037102003,-0.09003499,0.0608675,0.10378271,-0.25989434,-0.017343171,-0.015653668,0.0017763174,-0.12538788,49.917244,0.8219018,0.16794665,0.33511493,0.10876922,0.08953357,inf,inf,inf,inf,1,1,1,1,2,0,2,1,2,1,1,0,0
33495000,33495000,5596000,40.1540302,116.2594857,-0.3647078,0.064735696,-0.68689334,-4.834085e-06,0.00039730265,0.0,-0.08588539,0.011457178,0.0047562155,0.024703128,-0.09003499,0.0608675,0.10378271,2.1185875,-0.020881278,0.0290413,0.0022081486,-0.12538788,49.917244,0.81310827,0.16759464,0.33573326,0.10792491,0.08948558,inf,inf,inf,inf,1,1,1,1,2,0,2,1,2,1,1,0,0
33995000,33995000,5596000,40.1540302,116.2594857,-0.53338504,0.084779,-0.70272976,-4.834085e-06,0.00039730265,0.0,-0.10327421,0.0066709686,0.0014354413,-0.0016740623,-0.09003499,0.0608675,0.10378271,-5.1479,-0.04194682,0.04293557,0.0024621722,-0.12538788,49.917244,0.8289447,0.16742499,0.33483437,0.1079131,0.08937283,inf,inf,inf,inf,1,1,1,1,2,0,2,1,2,1,1,0,0
34488000,34488000,5596000,40.1540302,116.2594857,-0.5910181,0.07519467,-0.6915221,-4.834085e-06,0.00039730265,0.0,-0.12141795,-0.008368885,0.0051056924,0.0120966295,-0.09003499,0.0608675,0.10378271,-2.5904274,-0.011111798,-0.050262544,0.0027884154,-0.12538788,49.917244,0.81773704,0.16643256,0.3349613,0.10650786,0.089140035,inf,inf,inf,inf,1,1,1,1,2,0,2,1,2,1,1,0,0
35000000,35000000,5596000,40.1540302,116.2594857,-0.534542,0.06598371,-0.67213583,-4.834085e-06,0.00039730265,0.0,-0.013924155,-0.008913698,0.002948745,0.019905157,-0.09003499,0.0608675,0.10378271,-1.2527289,-0.0045215157,-0.006263703,0.0031922415,-0.12538788,49.917244,0.79835075,0.16613463,0.3340876,0.10651615,0.08900705,inf,inf,inf,inf,1,1,1,1,2,0,2,1,2,1,1,0,0
35496000,35496000,5596000,40.1540302,116.2594857,-0.40841746,0.0393295,-0.64988816,-4.834085e-06,0.00039730265,0.0,-0.029065693,-0.019517131,0.004387771,0.028217778,-0.09003499,0.0608675,0.10378271,-0.8854985,0.022762885,-0.029423272,0.003221814,-0.12538788,49.917244,0.7761031,0.16652259,0.33525142,0.10621055,0.089204594,inf,inf,inf,inf,1,1,1,1,2,0,2,1,2,1,1,0,0
35996000,35996000,5596000,40.1540302,116.2594857,-0.28988278,0.030136395,-0.6989574,-4.834085e-06,0.00039730265,0.0,0.09642069,-0.010945599,-0.0042475574,-0.028905025,-0.09003499,0.0608675,0.10378271,1.7413235,0.01160894,0.030398367,0.003519195,-0.12538788,49.917244,0.8251723,0.16556759,0.33391535,0.10549125,0.08888598,inf,inf,inf,inf,1,1,1,1,2,0,2,1,2,1,1,0,0
36496000,36496000,5596000,40.1540302,116.2594857,-0.12292836,0.015283486,-0.76426667,-4.834085e-06,0.00039730265,0.0,0.004708521,-0.0100850845,0.0043103145,-0.05568987,-0.09003499,0.0608675,0.10378271,-1.548529,0.010045265,0.028866341,0.0037054385,-0.12538788,49.917244,0.8904816,0.17305616,0.33710116,0.10957204,0.09085483,inf,inf,inf,inf,1,1,1,1,2,0,2,1,2,1,1,0,0
36996000,36996000,5596000,40.1540302,116.2594857,-0.06294487,0.018815733,-0.75959134,-4.834085e-06,0.00039730265,0.0,0.06249743,-0.0025608502,0.0019914308,-0.028178126,-0.09003499,0.0608675,0.10378271,1.1224457,-0.0030056152,-0.091671936,0.0036651175,-0.12538788,49.917244,0.88580626,0.17158104,0.3357145,0.10844981,0.09045286,inf,inf,inf,inf,1,1,1,1,2,0,2,1,2,1,1,0,0
37500000,37500000,5596000,40.1540302,116.2594857,0.08189507,0.010786478,-0.7496417,-4.834085e-06,0.00039730265,0.0,0.20833372,-0.007747433,0.0013630673,-0.006710375,-0.09003499,0.0608675,0.10378271,2.310198,0.011832754,-0.13863668,0.0033621744,-0.12538788,49.917244,0.87585664,0.17217438,0.337335,0.107908614,0.090757824,inf,inf,inf,inf,1,1,1,1,2,0,2,1,2,1,1,0,0
37996000,37996000,5596000,40.1540302,116.2594857,0.07454248,-0.0024942385,-0.7529664,-4.834085e-06,0.00039730265,0.0,0.051757175,-0.007979294,0.00053947564,-0.009526354,-0.09003499,0.0608675,0.10378271,2.9060557,0.017375045,-0.0034496186,0.0027911847,-0.12538788,49.917244,0.8791813,0.17063059,0.3358664,0.107028365,0.09029324,inf,inf,inf,inf,1,1,1,1,2,0,2,1,2,1,1,0,0
38499000,38499000,5596000,40.1540302,116.2594857,0.099640995,-0.035691798,-0.7304088,-4.834085e-06,0.00039730265,0.0,0.062381987,-0.01825956,0.0033425137,0.013644515,-0.09003499,0.0608675,0.10378271,-1.3456466,0.031019399,-0.024636274,0.00231767,-0.12538788,49.917244,0.8566237,0.16890709,0.33551764,0.106554665,0.08987617,inf,inf,inf,inf,1,1,1,1,2,0,2,1,2,1,1,0,0
39000000,39000000,5596000,40.1540302,116.2594857,0.10434675,-0.06401126,-0.74949634,-4.834085e-06,0.00039730265,0.0,-0.02307882,-0.014101379,1.1317199e-05,-0.0104891155,-0.09003499,0.0608675,0.10378271,0.8085804,0.037500788,0.0038873402,0.0017287887,-0.12538788,49.917244,0.87571126,0.17071828,0.3376404,0.10670681,0.0904645,inf,inf,inf,inf,1,1,1,1,2,0,2,1,2,1,1,0,0
39504000,39504000,5596000,40.1540302,116.2594857,0.088466875,-0.07910864,-0.7469787,-4.834085e-06,0.00039730265,0.0,0.07750346,-0.007804521,0.0007363236,-0.0020078078,-0.09003499,0.0608675,0.10378271,2.7995496,0.034845732,-0.024709849,0.0010231483,-0.12538788,49.917244,0.8731936,0.16988435,0.33662552,0.10619844,0.090200245,inf,inf,inf,inf,1,1,1,1,2,0,2,1,2,1,1,0,0
40000000,40000000,5596000,40.1540302,116.2594857,0.18979691,-0.06724413,-0.7678575,-4.834085e-06,0.00039730265,0.0,0.120418645,0.0062964354,0.0010412431,-0.014486202,-0.09003499,0.0608675,0.10378271,0.33571416,-0.0031283179,0.06822571,0.0002067763,-0.12538788,49.917244,0.8940724,0.16899623,0.3356044,0.10537647,0.08992433,inf,inf,inf,inf,1,1,1,1,2,0,2,1,2,1,1,0,0
40492000,40492000,5596000,40.1540302,116.2594857,0.20806298,-0.042705603,-0.5915704,-4.834085e-06,0.00039730265,0.0,0.024925629,-0.004421064,0.68963623,0.7157938,-0.09003499,0.0608675,0.10378271,0.39899847,-0.12213986,1.1488506,0.06526107,-0.12538788,49.917244,0.7177853,0.16755627,0.3356783,0.10272554,0.08961527,inf,inf,inf,inf,1,1,1,1,2,0,2,1,2,1,1,0,0
40996000,40996000,5596000,40.1540302,116.2594857,0.1967113,-0.055831287,-0.25418258,-4.834085e-06,0.00039730265,0.0,-0.07881626,-0.025292678,0.5276866,0.53282446,-0.09003499,0.0608675,0.10378271,-0.027253106,0.061397605,-0.25863424,0.006965672,-0.12538788,49.917244,0.3803975,0.16688757,0.3362616,0.10293724,0.08955192,inf,inf,inf,inf,1,1,1,1,2,0,2,1,2,1,1,0,0
41500000,41500000,5596000,40.1540302,116.2594857,0.18938689,-0.06887158,-0.103618816,-4.834085e-06,0.00039730265,0.0,-0.12969534,-0.04256318,0.10680489,0.09195637,-0.09003499,0.0608675,0.10378271,0.24466127,0.015753746,6.8061814,-0.010227315,-0.12538788,49.917244,0.22983375,0.16593666,0.33487943,0.10866698,0.08824111,inf,inf,inf,inf,1,1,1,1,2,0,2,1,2,1,1,0,0
42004000,42004000,5596000,40.1540302,116.2594857,0.2588403,-0.070427164,-0.087714255,-4.834085e-06,0.00039730265,0.0,0.055294357,-0.040430393,-0.0075895498,-0.013798943,-0.09003499,0.0608675,0.10378271,1.7610618,-0.021609483,-2.318004,-0.009073859,-0.12538788,49.917244,0.21392919,0.16728285,0.33487415,0.12001687,0.083750226,inf,inf,inf,inf,1,1,1,1,2,0,2,1,2,1,1,0,0
42496000,42496000,5596000,40.1540302,116.2594857,0.27843714,-0.06544178,-0.045826394,-4.834085e-06,0.00039730265,0.0,-0.07949333,-0.031867623,0.051743615,0.07749227,-0.09003499,0.0608675,0.10378271,-1.8862681,0.012895765,-0.87271905,-0.00884558,-0.12538788,49.917244,0.17204133,0.1667481,0.33483866,0.1290586,0.08143403,inf,inf,inf,inf,1,1,1,1,2,0,2,1,2,1,1,0,0
43003000,43003000,5596000,40.1540302,116.2594857,0.27032334,-0.057182327,-0.0410329,-4.834085e-06,0.00039730265,0.0,0.044216838,-0.0223229,0.030939931,0.039895736,-0.09003499,0.0608675,0.10378271,0.46178588,-0.0018097105,-0.109345786,-0.008900779,-0.12538788,49.917244,0.1037191,0.16785803,0.33407825,0.12867284,0.0808143,inf,inf,inf,inf,1,1,1,1,2,0,2,1,2,1,1,1,0
43500000,43500000,5596000,40.1540302,116.2594857,0.28410703,-0.04646315,-0.027244411,-4.834085e-06,0.00039730265,0.0,-0.007315592,-0.010824743,0.015850544,0.020761004,-0.09003499,0.0608675,0.10378271,1.5768653,-0.009170115,-0.02501756,-0.008951509,-0.12538788,49.917244,0.1,0.16789412,0.334307,0.1228419,0.08114672,inf,inf,inf,inf,1,1,1,1,2,0,2,1,2,1,1,1,0
43995000,43995000,5596000,40.1540302,116.2594857,0.25874147,-0.024865808,-0.04627859,-4.834085e-06,0.00039730265,0.0,-0.1549606,0.008163817,0.004883515,-0.009618644,-0.09003499,0.0608675,0.10378271,1.0992934,-0.0011337224,-0.016632488,-0.008972145,-0.12538788,49.917244,0.10219048,0.16691202,0.33256403,0.11854438,0.081756204,inf,inf,inf,inf,1,1,1,1,2,0,2,1,2,1,1,1,0
44500000,44500000,5596000,40.1540302,116.2594857,0.26311663,-0.02238306,-0.029457286,-4.834085e-06,0.00039730265,0.0,0.023780525,0.0036338903,0.008363176,0.011574304,-0.09003499,0.0608675,0.10378271,-0.3150686,0.006469692,-0.00067204237,-0.008933512,-0.12538788,49.917244,0.10639946,0.1734707,0.33390877,0.12200855,0.08415289,inf,inf,inf,inf,1,1,1,1,2,0,2,1,2,1,1,1,0
45004000,45004000,5596000,40.1540302,116.2594857,0.26749277,-0.0075537805,-0.02544843,-4.834085e-06,0.00039730265,0.0,0.016355412,0.015001489,0.005593417,0.0033332072,-0.09003499,0.0608675,0.10378271,1.3919253,-0.0032365667,-0.013291835,-0.008917941,-0.12538788,49.917244,0.1,0.17394425,0.33320406,0.1200862,0.085539214,inf,inf,inf,inf,1,1,1,1,2,0,2,1,2,1,1,1,0
45500000,45500000,5596000,40.1540302,116.2594857,0.23906459,0.012840107,-0.030022878,-4.834085e-06,0.00039730265,0.0,-0.062087756,0.027932268,0.0019291883,-9.339361e-05,-0.09003499,0.0608675,0.10378271,-2.4860399,0.0330506,0.019947065,-0.008873778,-0.12538788,49.917244,0.10979651,0.17256314,0.33323044,0.11679844,0.086525366,inf,inf,inf,inf,1,1,1,1,2,0,2,1,2,1,1,1,0
