timestamp,timestamp_sample,ref_timestamp,ref_lat,ref_lon,x,y,z,delta_xy[0],delta_xy[1],delta_z,vx,vy,vz,z_deriv,delta_vxy[0],delta_vxy[1],delta_vz,ax,ay,az,heading,delta_heading,ref_alt,dist_bottom,eph,epv,evh,evv,vxy_max,vz_max,hagl_min,hagl_max,xy_valid,z_valid,v_xy_valid,v_z_valid,xy_reset_counter,z_reset_counter,vxy_reset_counter,vz_reset_counter,heading_reset_counter,xy_global,z_global,dist_bottom_valid,dist_bottom_sensor_bitfield
712000,712000,0,nan,nan,1.4642922e-19,-1.1714337e-18,1.0126675e-07,0.0,0.0,0.0,2.6638673e-17,-2.1310939e-16,4.1385843e-05,4.1705112e-05,5.551115e-17,-4.440892e-16,0.0,-6.9388935e-15,5.5511148e-14,0.009575858,0.12114607,0.12114607,nan,0.10000059,0.70622146,3.5000029,7.071068,0.45001808,inf,inf,inf,inf,0,1,0,1,1,0,1,0,1,0,0,1,2
996000,996000,0,nan,nan,-3.4172687e-16,2.6649103e-15,-0.0041969474,0.0,0.0,0.0,-2.3265852e-15,1.8165282e-14,0.003545164,-0.0006760989,5.551115e-17,-4.440892e-16,0.0,-8.6736165e-15,6.938893e-14,0.009576789,0.12114607,0.12114607,nan,0.1,0.82450163,1.4300722,4.3784714,0.45297348,inf,inf,inf,inf,0,1,0,1,1,0,1,0,1,0,0,1,2
1505000,1505000,0,nan,nan,-3.3823031e-15,2.598634e-14,0.004738409,0.0,0.0,0.0,-7.968676e-15,5.9142124e-14,0.009103132,0.010677821,5.551115e-17,-4.440892e-16,0.0,-1.7347234e-15,0.0,0.009573064,0.12114607,0.12114607,nan,0.1,0.75796664,0.91645706,1.8928789,0.46645176,inf,inf,inf,inf,0,1,0,1,1,0,1,0,1,0,0,1,2
1996000,1996000,0,nan,nan,1.5828291e-14,-1.348726e-13,0.0026608924,0.0,0.0,0.0,3.2002396e-14,-2.7690613e-13,0.013030284,0.007942682,5.551115e-17,-4.440892e-16,0.0,1.21430635e-14,-1.11022296e-13,0.009566545,0.12114607,0.12114607,nan,0.1,0.5362334,0.7485862,1.2735239,0.46449876,inf,inf,inf,inf,0,1,0,1,1,0,1,0,1,0,0,1,2
2496000,2496000,0,nan,nan,7.7109915e-15,-7.2584686e-14,0.008671349,0.0,0.0,0.0,-2.8847424e-15,2.2164476e-15,0.017703403,0.013637467,5.551115e-17,-4.440892e-16,0.0,4.8572254e-14,-4.0245582e-13,0.009549781,0.12114607,0.12114607,nan,0.1,0.62708604,0.7202509,1.4390733,0.47403014,inf,inf,inf,inf,0,1,0,1,1,0,1,0,1,0,0,1,2
3000000,3000000,0,nan,nan,-2.0169337e-15,5.702712e-15,0.018304544,0.0,0.0,0.0,7.28873e-15,-7.967256e-14,0.022356905,0.019563058,5.551115e-17,-4.440892e-16,0.0,1.6306399e-13,-1.3600231e-12,0.009494833,0.12114607,0.12114607,nan,0.1,0.7567189,0.7231359,1.7009476,0.46976253,inf,inf,inf,inf,0,1,0,1,1,0,1,0,1,0,0,1,2
3500000,3500000,0,nan,nan,-4.637187e-14,3.7318786e-13,0.022876374,0.0,0.0,0.0,-2.3498762e-13,1.9170388e-12,0.024190817,0.016749766,5.551115e-17,-4.440892e-16,0.0,2.1337097e-13,-1.7624789e-12,0.00947155,0.12114607,0.12114607,nan,0.1,0.6019182,0.7450584,1.2556717,0.42976603,inf,inf,inf,inf,0,1,0,1,1,0,1,0,1,0,0,1,2
3997000,3997000,0,nan,nan,-5.291737e-13,4.3441895e-12,0.022748174,0.0,0.0,0.0,-1.2100006e-12,9.9348064e-12,0.024151675,0.010062313,5.551115e-17,-4.440892e-16,0.0,6.0541844e-13,-4.9821254e-12,0.009285285,0.12114607,0.12114607,nan,0.1,0.6556294,0.73175293,1.2623745,0.4026292,inf,inf,inf,inf,0,1,0,1,1,0,1,0,1,0,0,1,2
4497000,4497000,0,nan,nan,-1.0439034e-12,8.5758406e-12,0.023415338,0.0,0.0,0.0,-1.6586657e-12,1.3624001e-11,0.024664532,0.008603425,5.551115e-17,-4.440892e-16,0.0,7.382983e-13,-6.07292e-12,0.009223819,0.12114607,0.12114607,nan,0.1,0.5276775,0.7384192,1.0137231,0.40724152,inf,inf,inf,inf,0,1,0,1,1,0,1,0,1,0,0,1,2
4996000,4996000,0,nan,nan,-9.39884e-13,-1.10759665e-11,0.026959904,0.0,0.0,0.0,-1.034079e-12,-3.1249137e-09,0.025713196,0.009578369,5.551115e-17,-4.440892e-16,0.0,2.3349376e-12,-1.9179101e-11,0.008465721,0.12114607,0.12114607,nan,0.1,0.5872319,0.7289566,1.0263268,0.4245568,inf,inf,inf,inf,0,1,0,1,1,0,1,0,1,0,0,1,2
5500000,5500000,0,nan,nan,6.630398e-11,-1.2740499e-05,0.029098932,0.0,0.0,0.0,4.7140064e-10,-7.000059e-05,0.025568116,0.007977251,5.551115e-17,-4.440892e-16,0.0,2.089875e-09,-0.00022085726,0.008510425,0.12116507,0.12114607,nan,0.1,0.47721633,0.74326587,0.82012534,0.4550569,inf,inf,inf,inf,0,1,0,1,1,0,1,0,1,0,0,1,2
6005000,6005000,5504000,40.1540302,116.25952090000001,1.06946e-09,-8.717885e-05,0.027028982,0.0,0.0,0.0,4.165748e-09,-0.0002759765,0.023197629,0.0028398323,5.551115e-17,-4.440892e-16,0.0,9.532713e-09,-0.00046708476,0.008050767,0.121188715,0.12114607,49.95361,0.1,0.5297297,0.75098306,0.8196983,0.4792812,inf,inf,inf,inf,0,1,0,1,1,0,1,0,1,1,1,1,0
6496000,6496000,5504000,40.1540302,116.25952090000001,4.008264e-09,-0.00021074522,0.030744923,0.0,0.0,0.0,1.15523235e-08,-0.0005171446,0.022883484,0.0050788666,5.551115e-17,-4.440892e-16,0.0,1.8865258e-08,-0.00065026816,0.0071600075,0.12121164,0.12114607,49.95361,0.1,0.568419,0.7723368,0.7980031,0.49764985,inf,inf,inf,inf,0,1,0,1,1,0,1,0,1,1,1,1,0
7000000,7000000,5504000,40.1540302,116.25952090000001,-3.7772022e-06,-0.0003448749,0.03369663,0.0,0.0,0.0,-2.7654802e-05,-0.00073521584,0.021545816,0.0046233875,5.551115e-17,-4.440892e-16,0.0,-8.955376e-05,-0.0007783281,0.005056709,-0.0041590333,-0.12539054,49.95361,0.1,0.46615955,0.77651227,0.5604629,0.49787173,inf,inf,inf,inf,0,1,0,1,1,0,1,0,2,1,1,1,0
7501000,7501000,5504000,40.1540302,116.25952090000001,-2.5970736e-05,-0.0005021616,0.028277779,0.0,0.0,0.0,-6.94623e-05,-0.0010019244,0.016119191,-0.0056759138,5.551115e-17,-4.440892e-16,0.0,-7.892213e-05,-0.00096852635,0.0025689602,-0.004162743,-0.12539054,49.95361,0.1,0.47116527,0.79664856,0.53467023,0.49536267,inf,inf,inf,inf,0,1,0,1,1,0,1,0,2,1,1,1,0
7996000,7996000,5504000,40.1540302,116.25952090000001,-4.7589863e-05,-0.0007005538,0.025913982,0.0,0.0,0.0,-8.731093e-05,-0.001271136,0.013071509,-0.0063265003,5.551115e-17,-4.440892e-16,0.0,-5.7308836e-05,-0.0010536786,0.0014752148,-0.0041653933,-0.12539054,49.95361,0.1,0.4101259,0.7899866,0.55335516,0.47518826,inf,inf,inf,inf,0,1,0,1,1,0,1,0,2,1,1,1,0
8501000,8501000,5504000,40.1540302,116.25952090000001,-5.3189593e-05,-0.00083416555,0.01976176,0.0,0.0,0.0,-7.22488e-05,-0.001358485,0.0083185695,-0.012059831,5.551115e-17,-4.440892e-16,0.0,-2.0078209e-05,-0.0009711951,0.0008970499,-0.004162424,-0.12539054,49.95361,0.1,0.45752653,0.7971774,0.6076043,0.45734394,inf,inf,inf,inf,0,1,0,1,1,0,1,0,2,1,1,1,0
9000000,9000000,5504000,40.1540302,116.25952090000001,-3.82047e-05,-0.000841713,0.015037018,0.0,0.0,0.0,-3.3121447e-05,-0.0012723963,0.0049355756,-0.013182077,5.551115e-17,-4.440892e-16,0.0,1.5523636e-05,-0.0008601135,-0.00043679026,-0.0041524577,-0.12539054,49.95361,0.100143366,0.5117197,0.79961914,0.61064506,0.43640447,inf,inf,inf,inf,0,1,0,1,1,0,1,0,2,1,1,1,0
9495000,9495000,5504000,40.1540302,116.25952090000001,-1.0701716e-05,-0.00073693384,0.008787953,0.0,0.0,0.0,1.0849342e-05,-0.0011150216,0.0014678931,-0.015374942,5.551115e-17,-4.440892e-16,0.0,4.002858e-05,-0.00078190386,0.00051728316,-0.004141414,-0.12539054,49.95361,0.10216076,0.44037017,0.7751434,0.48412117,0.40584868,inf,inf,inf,inf,0,1,0,1,1,0,1,0,2,1,1,1,0
10004000,10004000,5504000,40.1540302,116.25952090000001,1.6918179e-05,-0.0006730371,0.0063898684,0.0,0.0,0.0,4.6187048e-05,-0.001064535,7.997929e-05,-0.011339735,5.551115e-17,-4.440892e-16,0.0,5.4442226e-05,-0.00078933657,0.0021364538,-0.0041305064,-0.12539054,49.95361,0.10455656,0.46498334,0.77559686,0.44291157,0.38528505,inf,inf,inf,inf,0,1,0,1,1,0,1,0,2,1,1,1,0
10496000,10496000,5504000,40.1540302,116.25952090000001,0.0046568816,-0.0066913525,0.07012967,-4.3402415e-06,0.00040481982,0.0,0.0034166,-0.0103549855,0.13486929,0.09673097,0.03996568,-0.039126333,0.19801445,-0.0065938486,0.0022366082,-0.0013432333,-0.004082534,-0.12539054,49.95361,0.1,0.25896084,0.6485915,0.17943944,0.15921819,inf,inf,inf,inf,1,1,1,1,2,0,2,1,2,1,1,1,0
10996000,10996000,5504000,40.1540302,116.25952090000001,0.005035789,-0.0014665994,0.065046474,-4.3402415e-06,0.00040481982,0.0,0.009404929,0.0005949277,0.07743817,0.024194451,0.03996568,-0.039126333,0.19801445,0.01208008,0.0034339675,-0.0070882956,-0.003975524,-0.12539054,49.95361,0.1,0.21169363,0.5734171,0.1698139,0.13125712,inf,inf,inf,inf,1,1,1,1,2,0,2,1,2,1,1,1,0
11496000,11496000,5504000,40.1540302,116.25952090000001,0.005039246,0.0015722723,0.05850673,-4.3402415e-06,0.00040481982,0.0,0.0021930998,0.004729736,0.05784342,-0.00037869602,0.03996568,-0.039126333,0.19801445,-0.006164693,0.0050835037,-0.008570297,-0.0038127247,-0.12539054,49.95361,0.1,0.19541149,0.5268226,0.18000658,0.12176595,inf,inf,inf,inf,1,1,1,1,2,0,2,1,2,1,1,1,0
11996000,11996000,5504000,40.1540302,116.25952090000001,0.0054713874,-0.0026258659,-0.03880951,-4.3402415e-06,0.00040481982,0.0,0.0046416624,-0.0037555366,-0.0056180153,-0.1262411,0.03996568,-0.039126333,0.19801445,0.0053107003,-0.0059838365,-0.035934146,-0.003820895,-0.12539054,49.95361,0.1,0.18457481,0.47901058,0.18116415,0.11604583,inf,inf,inf,inf,1,1,1,1,2,0,2,1,2,1,1,1,0
12492000,12492000,5504000,40.1540302,116.25952090000001,0.018708143,-0.010863298,-0.04597419,-4.3402415e-06,0.00040481982,0.0,0.022457376,-0.012370664,-0.016293228,-0.07945225,0.03996568,-0.039126333,0.19801445,0.016017761,-0.008916862,-0.02822466,-0.0040888255,-0.12539054,49.95361,0.1251097,0.17925023,0.4516404,0.17555484,0.11448645,inf,inf,inf,inf,1,1,1,1,2,0,2,1,2,1,1,1,0
12992000,12992000,5504000,40.1540302,116.25952090000001,0.03261995,-0.006204528,-0.07716466,-4.3402415e-06,0.00040481982,0.0,0.032779362,-0.0020920068,-0.04009327,-0.09157223,0.03996568,-0.039126333,0.19801445,0.014470481,0.00094609795,-0.024603307,-0.003983026,-0.12539054,49.95361,0.11204482,0.17626713,0.4272744,0.16726235,0.113854595,inf,inf,inf,inf,1,1,1,1,2,0,2,1,2,1,1,1,0
13504000,13504000,5504000,40.1540302,116.25952090000001,0.053983826,-0.0058755204,-0.115685396,-4.3402415e-06,0.00040481982,0.0,0.053800665,-0.0026142478,-0.06328778,-0.10111126,0.03996568,-0.039126333,0.19801445,0.029713187,-0.0010747605,-0.01515448,-0.0038577674,-0.12539054,49.95361,0.12465037,0.17532872,0.41181087,0.16132267,0.11392523,inf,inf,inf,inf,1,1,1,1,2,0,2,1,2,1,1,1,0
14000000,14000000,5504000,40.1540302,116.25952090000001,0.067929946,0.0021117455,-0.14444414,-4.3402415e-06,0.00040481982,0.0,0.05787105,0.007800537,-0.07929648,-0.096048,0.03996568,-0.039126333,0.19801445,0.021591298,0.0074080373,-0.028913839,-0.0036224914,-0.12539054,49.95361,0.12571418,0.17309709,0.39603424,0.15464775,0.112583764,inf,inf,inf,inf,1,1,1,1,2,0,2,1,2,1,1,1,0
14496000,14496000,5504000,40.1540302,116.25952090000001,0.06886346,-0.019581275,-0.14748491,-4.3402415e-06,0.00040481982,0.0,0.05021981,-0.020319832,-0.07932224,-0.058551684,0.03996568,-0.039126333,0.19801445,0.017245859,-0.014975471,-0.031615604,-0.0038235355,-0.12539054,49.95361,0.1356549,0.17205897,0.3863254,0.14958085,0.111380465,inf,inf,inf,inf,1,1,1,1,2,0,2,1,2,1,1,1,0
15001000,15001000,5504000,40.1540302,116.25952090000001,0.026095117,-0.0231522,-0.14195456,-4.3402415e-06,0.00040481982,0.0,-0.003306021,-0.019614846,-0.07514334,-0.030329622,0.03996568,-0.039126333,0.19801445,-0.01521839,-0.009997576,-0.006551544,-0.004054241,-0.12539054,49.95361,0.13610443,0.17248279,0.37713152,0.14790705,0.1100675,inf,inf,inf,inf,1,1,1,1,2,0,2,1,2,1,1,1,0
15492000,15492000,5504000,40.1540302,116.25952090000001,-0.00051319215,-0.037774883,-0.09538497,-4.3402415e-06,0.00040481982,0.0,-0.02431961,-0.033486642,-0.049028695,0.035289764,0.03996568,-0.039126333,0.19801445,-0.01753972,-0.01681556,-0.0142175695,-0.0045047905,-0.12539054,49.95361,0.12547565,0.17108965,0.37058026,0.1439481,0.10797162,inf,inf,inf,inf,1,1,1,1,2,0,2,1,2,1,1,1,0
16001000,16001000,5504000,40.1540302,116.25952090000001,-0.009747201,-0.044426255,-0.07264026,-4.3402415e-06,0.00040481982,0.0,-0.027688542,-0.033451706,-0.03720968,0.044207294,0.03996568,-0.039126333,0.19801445,-0.01648724,-0.011320343,0.00036507845,-0.0050368113,-0.12539054,49.95361,0.13282257,0.17126808,0.3643938,0.14133254,0.10612251,inf,inf,inf,inf,1,1,1,1,2,0,2,1,2,1,1,1,0
16492000,16492000,5504000,40.1540302,116.25952090000001,-0.019750334,-0.02505892,0.0059381407,-4.3402415e-06,0.00040481982,0.0,-0.03427388,-0.010751419,0.0034456323,0.117048,0.03996568,-0.039126333,0.19801445,-0.018409122,-0.0008557626,0.0008018687,-0.005047688,-0.12539054,49.95361,0.13432403,0.1698956,0.36012977,0.13734825,0.10385014,inf,inf,inf,inf,1,1,1,1,2,0,2,1,2,1,1,1,0
17000000,17000000,5504000,40.1540302,116.25952090000001,-0.030513318,-0.034303453,0.06873075,-4.3402415e-06,0.00040481982,0.0,-0.0384203,-0.022540666,0.029236946,0.12632258,0.03996568,-0.039126333,0.19801445,-0.016087528,-0.009194295,-0.00010989606,-0.005194958,-0.12539054,49.95361,0.1,0.16946791,0.35718432,0.13462226,0.10188649,inf,inf,inf,inf,1,1,1,1,2,0,2,1,2,1,1,1,0
17496000,17496000,5504000,40.1540302,116.25952090000001,-0.045732085,-0.027498852,0.07839485,-4.3402415e-06,0.00040481982,0.0,-0.049597826,-0.011094015,0.030222552,0.08047122,0.03996568,-0.039126333,0.19801445,-0.023294033,0.00084294705,0.0016260891,-0.0053438833,-0.12539054,49.95361,0.1,0.16897961,0.35297295,0.13179778,0.09978621,inf,inf,inf,inf,1,1,1,1,2,0,2,1,2,1,1,1,0
17996000,17996000,5504000,40.1540302,116.25952090000001,-0.06614155,-0.013597761,0.0560796,-4.3402415e-06,0.00040481982,0.0,-0.06158708,-0.00022052035,0.017631685,0.020113004,0.03996568,-0.039126333,0.19801445,-0.024271581,0.00075904536,-0.0032158566,-0.0051807743,-0.12539054,49.95361,0.1,0.16867983,0.35115287,0.12927018,0.09797091,inf,inf,inf,inf,1,1,1,1,2,0,2,1,2,1,1,1,0
18501000,18501000,5504000,40.1540302,116.25952090000001,-0.07581481,-0.01906413,0.019544944,-4.3402415e-06,0.00040481982,0.0,-0.06199012,-0.0066706706,0.0021734943,-0.022037324,0.03996568,-0.039126333,0.19801445,-0.021758854,-0.0013906157,0.17513037,-0.005210375,-0.12539054,49.95361,0.104841515,0.16911541,0.34854418,0.12742402,0.09631044,inf,inf,inf,inf,1,1,1,1,2,0,2,1,2,1,1,1,0
18992000,18992000,5504000,40.1540302,116.25952090000001,-0.0642142,-0.006429057,0.05606012,-4.3402415e-06,0.00040481982,0.0,-0.042805746,0.005084295,0.0051066186,0.01669704,0.03996568,-0.039126333,0.19801445,-0.010515243,0.0027955081,-0.9107561,-0.005069928,-0.12539054,49.95361,0.10405944,0.17615964,0.34940243,0.13182014,0.09663285,inf,inf,inf,inf,1,1,1,1,2,0,2,1,2,1,1,1,0
19496000,19496000,5504000,40.1540302,116.25952090000001,-0.034981146,-0.009550769,0.04065872,-4.3402415e-06,0.00040481982,0.0,-0.0146601945,0.0028139378,0.045757,0.030152548,0.03996568,-0.039126333,0.19801445,-0.0030881509,0.012334482,-2.149579,-0.004864468,-0.12539054,49.95361,0.11603985,0.17557412,0.34677562,0.16776367,0.094952956,inf,inf,inf,inf,1,1,1,1,2,0,2,1,2,1,1,1,0
19992000,19992000,5504000,40.1540302,116.25952090000001,-0.007979015,-0.023180999,-0.009530169,-4.3402415e-06,0.00040481982,0.0,0.0029245894,-0.02445136,-0.121132806,-0.15062495,0.03996568,-0.039126333,0.19801445,-0.10728161,-0.009122374,0.23615173,-0.0035877237,-0.12539054,49.95361,0.16622874,0.17561445,0.34607375,0.18810992,0.09368796,inf,inf,inf,inf,1,1,1,1,2,0,2,1,2,1,1,1,0
20496000,20496000,5504000,40.1540302,116.25952090000001,-0.03305606,0.002796508,-0.22796181,-4.3402415e-06,0.00040481982,0.0,-0.06895984,0.029788885,-0.46844912,-0.50937957,0.03996568,-0.039126333,0.19801445,-0.0175565,-0.0422208,0.5120048,0.0014620058,-0.12539054,49.95361,0.38466036,0.17589697,0.3439257,0.17869012,0.09256275,inf,inf,inf,inf,1,1,1,1,2,0,2,1,2,1,1,1,0
20992000,20992000,5504000,40.1540302,116.25952090000001,-0.08774465,0.04549796,-0.42878753,-4.3402415e-06,0.00040481982,0.0,-0.058660977,0.0211601,-0.29910943,-0.3310543,0.03996568,-0.039126333,0.19801445,0.10807455,-0.12243166,0.1921188,0.002552966,-0.12539054,49.95361,0.5854861,0.17527765,0.34358492,0.16183898,0.09173592,inf,inf,inf,inf,1,1,1,1,2,0,2,1,2,1,1,1,0
21492000,21492000,5504000,40.1540302,116.25952090000001,-0.070906825,-0.0025828988,-0.5273532,-4.3402415e-06,0.00040481982,0.0,0.004758318,-0.055814046,-0.25489873,-0.24531609,0.03996568,-0.039126333,0.19801445,0.0097263735,0.023116464,0.048234124,0.0010406406,-0.12539054,49.95361,0.6840518,0.17475583,0.34174052,0.14765954,0.090993196,inf,inf,inf,inf,1,1,1,1,2,0,2,1,2,1,1,1,0
22000000,22000000,5504000,40.1540302,116.25952090000001,-0.041110255,-0.07479115,-0.65266484,-4.3402415e-06,0.00040481982,0.0,0.012583489,-0.04172838,-0.19410896,-0.1989261,0.03996568,-0.039126333,0.19801445,-0.061811868,0.13545087,0.2056146,0.0005693928,-0.12539054,49.95361,0.8093634,0.174446,0.3416633,0.1365049,0.09060032,inf,inf,inf,inf,1,1,1,1,2,0,2,1,2,1,1,1,0
22496000,22496000,5504000,40.1540302,116.25952090000001,-0.05527683,-0.11693171,-0.74236405,-4.3402415e-06,0.00040481982,0.0,-0.017292485,0.005940536,-0.12509476,-0.13712001,0.03996568,-0.039126333,0.19801445,-0.011716015,0.15990622,0.073164694,0.0005287039,-0.12539054,49.95361,0.89906263,0.17357951,0.3400136,0.12709711,0.09013353,inf,inf,inf,inf,1,1,1,1,2,0,2,1,2,1,1,1,0
22993000,22993000,5504000,40.1540302,116.25952090000001,-0.07882573,-0.080452174,-0.7829932,-4.3402415e-06,0.00040481982,0.0,-0.019289585,0.070338674,-0.10214198,-0.09653237,0.03996568,-0.039126333,0.19801445,0.030603109,0.023310425,-0.033800304,0.00049031887,-0.12539054,49.95361,0.9396918,0.17261523,0.34005192,0.11998688,0.08989741,inf,inf,inf,inf,1,1,1,1,2,0,2,1,2,1,1,1,0
23492000,23492000,5504000,40.1540302,116.25952090000001,-0.11320305,-0.040954977,-0.79719025,-4.3402415e-06,0.00040481982,0.0,-0.012890389,0.059949804,-0.10666464,-0.07335261,0.03996568,-0.039126333,0.19801445,0.073961675,-0.050316177,-0.10777357,0.0005111275,-0.12539054,49.95361,0.95388883,0.17164461,0.3401512,0.11490939,0.089738704,inf,inf,inf,inf,1,1,1,1,2,0,2,1,2,1,1,1,0
23996000,23996000,5504000,40.1540302,116.25952090000001,-0.1316941,-0.014035936,-0.76489025,-4.3402415e-06,0.00040481982,0.0,-0.0018653378,0.033229563,0.0638619,0.1130986,0.03996568,-0.039126333,0.19801445,0.012276146,-0.07920938,-0.21911784,0.00035332117,-0.12539054,49.95361,0.92158884,0.17067388,0.3387212,0.11136822,0.089508,inf,inf,inf,inf,1,1,1,1,2,0,2,1,2,1,1,1,0
24496000,24496000,5504000,40.1540302,116.25952090000001,-0.11873031,-0.015526288,-0.7150101,-4.3402415e-06,0.00040481982,0.0,0.013463233,-0.004023914,-0.018277569,0.039866783,0.03996568,-0.039126333,0.19801445,-0.008109296,-0.020975508,-0.15406123,0.00017263192,-0.12539054,49.95361,0.8717087,0.16989551,0.3389607,0.11027844,0.089481205,inf,inf,inf,inf,1,1,1,1,2,0,2,1,2,1,1,0,0
25001000,25001000,5504000,40.1540302,116.25952090000001,-0.08714602,-0.0020040506,-0.72445184,-4.3402415e-06,0.00040481982,0.0,0.010706243,-0.0037314072,-0.029133089,0.009367496,0.03996568,-0.039126333,0.19801445,-0.06466525,-0.037320673,-0.024817884,6.3768624e-05,-0.12539054,49.95361,0.8811504,0.16999191,0.3381718,0.11089452,0.08956846,inf,inf,inf,inf,1,1,1,1,2,0,2,1,2,1,1,0,0
25492000,25492000,5504000,40.1540302,116.25952090000001,-0.081279986,0.00667542,-0.6948497,-4.3402415e-06,0.00040481982,0.0,-0.018334385,-0.018990431,-0.059618115,0.0027856727,0.03996568,-0.039126333,0.19801445,-0.05292652,-0.05623532,-0.14820042,0.00018245594,-0.12539054,49.95361,0.8515483,0.16873223,0.3380434,0.110994525,0.089396395,inf,inf,inf,inf,1,1,1,1,2,0,2,1,2,1,1,0,0
25992000,25992000,5504000,40.1540302,116.25952090000001,-0.09200488,-0.027061626,-0.7300807,-4.3402415e-06,0.00040481982,0.0,-0.028096275,-0.03817405,-0.062188778,-0.029414516,0.03996568,-0.039126333,0.19801445,-0.014660483,0.03209236,0.113232985,8.125361e-05,-0.12539054,49.95361,0.8867793,0.16826381,0.3368484,0.11180731,0.08928551,inf,inf,inf,inf,1,1,1,1,2,0,2,1,2,1,1,0,0
26496000,26496000,5504000,40.1540302,116.25952090000001,-0.12174375,-0.04906023,-0.7637201,-4.3402415e-06,0.00040481982,0.0,-0.037468977,-0.01734451,-0.010659468,-0.00011114316,0.03996568,-0.039126333,0.19801445,0.03179457,0.042628363,-0.0054631378,-0.00013981451,-0.12539054,49.95361,0.9204187,0.16785306,0.33725053,0.11192884,0.08928977,inf,inf,inf,inf,1,1,1,1,2,0,2,1,2,1,1,0,0
26992000,26992000,5504000,40.1540302,116.25952090000001,-0.16265427,-0.069140814,-0.7436213,-4.3402415e-06,0.00040481982,0.0,-0.01868833,-2.7757604e-05,-0.006990987,0.021521376,0.03996568,-0.039126333,0.19801445,0.06979509,0.038755238,0.33994094,-0.00023905725,-0.12539054,49.95361,0.9003199,0.16763324,0.33615553,0.1126408,0.08919758,inf,inf,inf,inf,1,1,1,1,2,0,2,1,2,1,1,0,0
27492000,27492000,5504000,40.1540302,116.25952090000001,-0.15982683,-0.094962075,-0.73894227,-4.3402415e-06,0.00040481982,0.0,-0.0016267421,-0.013922247,0.014707585,0.03102564,0.03996568,-0.039126333,0.19801445,0.00086635107,0.02584482,-0.01988001,-0.0002858453,-0.12539054,49.95361,0.89564085,0.167354,0.33662978,0.11244526,0.08920127,inf,inf,inf,inf,1,1,1,1,2,0,2,1,2,1,1,0,0
28004000,28004000,5504000,40.1540302,116.25952090000001,-0.16783457,-0.1345716,-0.7280766,-4.3402415e-06,0.00040481982,0.0,-0.0037086245,-0.019244114,0.009642732,0.022335935,0.03996568,-0.039126333,0.19801445,0.009511592,0.04710322,-0.0035623086,-0.00071566075,-0.12539054,49.95361,0.88477516,0.16779101,0.33603114,0.11281529,0.08926606,inf,inf,inf,inf,1,1,1,1,2,0,2,1,2,1,1,0,0
28496000,28496000,5504000,40.1540302,116.25952090000001,-0.17085686,-0.12623768,-0.75510824,-4.3402415e-06,0.00040481982,0.0,-0.0034002764,0.003940193,0.006257006,-0.008452253,0.03996568,-0.039126333,0.19801445,0.009609804,0.00792393,0.019404104,-0.0009780283,-0.12539054,49.95361,0.9118068,0.1668931,0.3360203,0.11208333,0.08906966,inf,inf,inf,inf,1,1,1,1,2,0,2,1,2,1,1,0,0
28992000,28992000,5504000,40.1540302,116.25952090000001,-0.16565621,-0.105990246,-0.7885609,-4.3402415e-06,0.00040481982,0.0,0.003916287,0.010632983,0.002845863,-0.032305308,0.03996568,-0.039126333,0.19801445,-0.00087453687,-0.012252223,0.04078261,-0.0011713048,-0.12539054,49.95361,0.9452595,0.16660966,0.33498475,0.11114475,0.08893534,inf,inf,inf,inf,1,1,1,1,2,0,2,1,2,1,1,0,0
29504000,29504000,5504000,40.1540302,116.25952090000001,-0.14864562,-0.0695006,-0.77157545,-4.3402415e-06,0.00040481982,0.0,0.006938545,0.021477673,0.008856836,0.0034300648,0.03996568,-0.039126333,0.19801445,-0.0128774755,-0.031559,-0.027759373,-0.0011537782,-0.12539054,49.95361,0.92827404,0.16698146,0.3359948,0.11094176,0.08911309,inf,inf,inf,inf,1,1,1,1,2,0,2,1,2,1,1,0,0
30003000,30003000,5504000,40.1540302,116.25952090000001,-0.13020688,-0.041474827,-0.7632954,-4.3402415e-06,0.00040481982,0.0,0.010044633,0.014050751,0.0019751869,0.00043708048,0.03996568,-0.039126333,0.19801445,-0.019974627,-0.030695004,0.017815404,-0.00094222795,-0.12539054,49.95361,0.919994,0.16666643,0.33499706,0.11022354,0.08897442,inf,inf,inf,inf,1,1,1,1,2,0,2,1,2,1,1,0,0
30500000,30500000,5504000,40.1540302,116.25952090000001,-0.14033066,-0.05360273,-0.7379672,-4.3402415e-06,0.00040481982,0.0,-0.004930281,-0.004371895,0.00796879,0.027650844,0.03996568,-0.039126333,0.19801445,0.0095459055,0.014346808,-0.03784895,-0.00090272794,-0.12539054,49.95361,0.8946658,0.16562976,0.3350949,0.109220326,0.08876433,inf,inf,inf,inf,1,1,1,1,2,0,2,1,2,1,1,0,0
30996000,30996000,5504000,40.1540302,116.25952090000001,-0.12723696,-0.041671503,-0.7191486,-4.3402415e-06,0.00040481982,0.0,0.005747341,0.0064475397,0.0035539842,0.026520932,0.03996568,-0.039126333,0.19801445,-0.014415101,-0.0049954806,-0.010977498,-0.00070352526,-0.12539054,49.95361,0.87584716,0.17253105,0.33609584,0.11351154,0.09039043,inf,inf,inf,inf,1,1,1,1,2,0,2,1,2,1,1,0,0
31492000,31492000,5504000,40.1540302,116.25952090000001,-0.1379977,-0.012676758,-0.7006219,-4.3402415e-06,0.00040481982,0.0,-0.006224465,0.013695801,0.0018765808,0.02600655,0.03996568,-0.039126333,0.19801445,0.013506169,-0.02550331,-0.010993331,-0.0005750321,-0.12539054,49.95361,0.8573205,0.17197631,0.3366717,0.11219965,0.09034836,inf,inf,inf,inf,1,1,1,1,2,0,2,1,2,1,1,0,0
31995000,31995000,5504000,40.1540302,116.25952090000001,-0.14801489,0.016149828,-0.70349264,-4.3402415e-06,0.00040481982,0.0,-0.006338791,0.014842998,-0.0006213568,0.009244546,0.03996568,-0.039126333,0.19801445,0.018289983,-0.03248505,0.009951848,-0.00025974284,-0.12539054,49.95361,0.8601912,0.17154336,0.33573228,0.111786775,0.09020579,inf,inf,inf,inf,1,1,1,1,2,0,2,1,2,1,1,0,0
32496000,32496000,5504000,40.1540302,116.25952090000001,-0.1284414,0.017597003,-0.7188496,-4.3402415e-06,0.00040481982,0.0,0.008554093,-0.00035548347,0.0032416978,0.00076529785,0.03996568,-0.039126333,0.19801445,-0.01117721,-0.010937171,-0.0022552907,0.0001843042,-0.12539054,49.95361,0.8755482,0.17104699,0.33635557,0.1103331,0.090180725,inf,inf,inf,inf,1,1,1,1,2,0,2,1,2,1,1,0,0
33001000,33001000,5504000,40.1540302,116.25952090000001,-0.09825624,0.0062746555,-0.70425093,-4.3402415e-06,0.00040481982,0.0,0.010845571,-0.005488782,0.0031677186,0.013244677,0.03996568,-0.039126333,0.19801445,-0.028352037,0.0036182974,-0.02317056,0.00055712904,-0.12539054,49.95361,0.8609495,0.17135304,0.33597594,0.11039818,0.09025349,inf,inf,inf,inf,1,1,1,1,2,0,2,1,2,1,1,0,0
33499000,33499000,5504000,40.1540302,116.25952090000001,-0.101356514,-0.012224409,-0.6843686,-4.3402415e-06,0.00040481982,0.0,-0.0022791778,-0.012657704,0.0036886558,0.025218004,0.03996568,-0.039126333,0.19801445,0.0010504766,0.011562103,-0.027241452,0.00085822906,-0.12539054,49.95361,0.8410672,0.1699268,0.3361231,0.10866439,0.08998757,inf,inf,inf,inf,1,1,1,1,2,0,2,1,2,1,1,0,0
33996000,33996000,5504000,40.1540302,116.25952090000001,-0.09093557,-0.025385907,-0.71095484,-4.3402415e-06,0.00040481982,0.0,0.004449465,-0.0057887384,-0.005662281,-0.017591175,0.03996568,-0.039126333,0.19801445,-0.010271735,0.010209588,0.04819687,0.0010539966,-0.12539054,49.95361,0.8676534,0.16919826,0.3352233,0.107593514,0.08978484,inf,inf,inf,inf,1,1,1,1,2,0,2,1,2,1,1,0,0
34501000,34501000,5504000,40.1540302,116.25952090000001,-0.0785145,-0.039603636,-0.7731085,-4.3402415e-06,0.00040481982,0.0,0.0025335033,-0.008380003,-0.0063243005,-0.05865533,0.03996568,-0.039126333,0.19801445,-0.013941371,0.015088286,0.07053631,0.0012835861,-0.12539054,49.95361,0.92980707,0.16928455,0.3348274,0.10757477,0.08980036,inf,inf,inf,inf,1,1,1,1,2,0,2,1,2,1,1,0,0
34992000,34992000,5504000,40.1540302,116.25952090000001,-0.08763218,-0.032103285,-0.7869416,-4.3402415e-06,0.00040481982,0.0,-0.003659814,0.003874982,0.0037021665,-0.031247465,0.03996568,-0.039126333,0.19801445,0.008102631,-0.008443246,-0.01795441,0.0014936032,-0.12539054,49.95361,0.9436402,0.16807483,0.33499047,0.106426805,0.08956053,inf,inf,inf,inf,1,1,1,1,2,0,2,1,2,1,1,0,0
35492000,35492000,5504000,40.1540302,116.25952090000001,-0.080339864,-0.028685628,-0.7744114,-4.3402415e-06,0.00040481982,0.0,0.0027795106,0.0024828278,0.0025732063,-0.00848779,0.03996568,-0.039126333,0.19801445,-0.007864291,-0.010774184,-0.014426186,0.0017824376,-0.12539054,49.95361,0.93110996,0.16771893,0.3356482,0.10612534,0.08954772,inf,inf,inf,inf,1,1,1,1,2,0,2,1,2,1,1,0,0
35992000,35992000,5504000,40.1540302,116.25952090000001,-0.07831167,-0.03881399,-0.767843,-4.3402415e-06,0.00040481982,0.0,0.00026953506,-0.0017467942,-0.0020958772,-0.006436486,0.03996568,-0.039126333,0.19801445,-0.002587269,0.0038509045,0.013262964,0.00202918,-0.12539054,49.95361,0.9245416,0.16747507,0.33476958,0.10619736,0.08943156,inf,inf,inf,inf,1,1,1,1,2,0,2,1,2,1,1,0,0
36496000,36496000,5504000,40.1540302,116.25952090000001,-0.08882805,-0.05919639,-0.7565749,-4.3402415e-06,0.00040481982,0.0,-0.0060154996,-0.011530059,0.004230249,0.01266619,0.03996568,-0.039126333,0.19801445,0.005469387,0.016178912,-0.028324312,0.002238109,-0.12539054,49.95361,0.9132735,0.16713166,0.33540973,0.1054268,0.089413784,inf,inf,inf,inf,1,1,1,1,2,0,2,1,2,1,1,0,0
37003000,37003000,5504000,40.1540302,116.25952090000001,-0.0971538,-0.09088619,-0.7537546,-4.3402415e-06,0.00040481982,0.0,-0.0032080093,-0.0155839315,-0.0020534552,0.0014577805,0.03996568,-0.039126333,0.19801445,0.007968847,0.033078786,0.01366157,0.0022894766,-0.12539054,49.95361,0.9104532,0.16751765,0.33501095,0.10566258,0.08948636,inf,inf,inf,inf,1,1,1,1,2,0,2,1,2,1,1,0,0
37496000,37496000,5504000,40.1540302,116.25952090000001,-0.0904251,-0.10633191,-0.7611237,-4.3402415e-06,0.00040481982,0.0,0.0027468004,-0.011787748,0.12500156,0.11942575,0.03996568,-0.039126333,0.19801445,-0.007302773,0.019459171,1.304056,0.0022781205,-0.12539054,49.95361,0.9178223,0.16643743,0.3351718,0.104552984,0.08926022,inf,inf,inf,inf,1,1,1,1,2,0,2,1,2,1,1,0,0
37996000,37996000,5504000,40.1540302,116.25952090000001,-0.10114846,-0.10429706,-0.46710774,-4.3402415e-06,0.00040481982,0.0,-0.009143001,0.003451258,0.74565387,0.76856077,0.03996568,-0.039126333,0.19801445,0.0068000956,0.041136548,-0.2302667,0.0022413416,-0.12539054,49.95361,0.6238063,0.1659949,0.33578995,0.101684324,0.08923121,inf,inf,inf,inf,1,1,1,1,2,0,2,1,2,1,1,0,0
38493000,38493000,5504000,40.1540302,116.25952090000001,-0.12970792,-0.074639,-0.17556022,-4.3402415e-06,0.00040481982,0.0,-0.004860712,0.009833976,0.600166,0.59713495,0.03996568,-0.039126333,0.19801445,0.06638249,-0.04750808,0.35751015,0.0022566938,-0.12539054,49.95361,0.3322588,0.1655766,0.33490172,0.103202455,0.089100964,inf,inf,inf,inf,1,1,1,1,2,0,2,1,2,1,1,0,0
38992000,38992000,5504000,40.1540302,116.25952090000001,-0.12121057,-0.07214454,-0.09553072,-4.3402415e-06,0.00040481982,0.0,0.0010341123,-0.033292565,0.17651057,0.11326295,0.03996568,-0.039126333,0.19801445,-0.013710501,-0.009087166,-5.447407,0.0022176474,-0.12539054,49.95361,0.25222927,0.16518235,0.33404034,0.108512655,0.08738506,inf,inf,inf,inf,1,1,1,1,2,0,2,1,2,1,1,0,0
39499000,39499000,5504000,40.1540302,116.25952090000001,-0.10821005,-0.09510049,-0.13617572,-4.3402415e-06,0.00040481982,0.0,0.011227752,-0.050014194,-0.08702844,-0.1263616,0.03996568,-0.039126333,0.19801445,0.0068722963,-0.0052030333,5.2214093,0.0021220248,-0.12539054,49.95361,0.29287428,0.16527839,0.33461726,0.11966917,0.083162285,inf,inf,inf,inf,1,1,1,1,2,0,2,1,2,1,1,0,0
39996000,39996000,5504000,40.1540302,116.25952090000001,-0.10478989,-0.10677185,-0.11349606,-4.3402415e-06,0.00040481982,0.0,0.0120201735,-0.05340887,-0.08162075,-0.06948059,0.03996568,-0.039126333,0.19801445,0.008843571,-0.014477021,-0.45997053,0.0019972473,-0.12539054,49.95361,0.27019462,0.1655001,0.3350247,0.12890968,0.08112882,inf,inf,inf,inf,1,1,1,1,2,0,2,1,2,1,1,0,0
40492000,40492000,5504000,40.1540302,116.25952090000001,-0.10125871,-0.095028505,-0.070677534,-4.3402415e-06,0.00040481982,0.0,0.014607345,-0.034162685,-0.023284728,0.03192754,0.03996568,-0.039126333,0.19801445,0.009085139,-0.0027903372,-0.10804179,0.001977293,-0.12539054,49.95361,0.12546352,0.17368463,0.3353906,0.13430882,0.08177986,inf,inf,inf,inf,1,1,1,1,2,0,2,1,2,1,1,1,0
40999000,40999000,5504000,40.1540302,116.25952090000001,-0.10301523,-0.08694704,-0.05880263,-4.3402415e-06,0.00040481982,0.0,0.010827703,-0.023516959,-0.03087113,0.016109644,0.03996568,-0.039126333,0.19801445,0.0059488905,0.004228626,-0.0033814993,0.0020018087,-0.12539054,49.95361,0.1,0.17382322,0.335583,0.12863801,0.082198516,inf,inf,inf,inf,1,1,1,1,2,0,2,1,2,1,1,1,0
41492000,41492000,5504000,40.1540302,116.25952090000001,-0.10096707,-0.07765883,-0.048186027,-4.3402415e-06,0.00040481982,0.0,0.012060249,-0.013378692,-0.022568142,0.023049952,0.03996568,-0.039126333,0.19801445,0.006251885,0.005617241,-0.000108964734,0.002075176,-0.12539054,49.95361,0.10077847,0.17338654,0.3342329,0.12421676,0.08303351,inf,inf,inf,inf,1,1,1,1,2,0,2,1,2,1,1,1,0
42004000,42004000,5504000,40.1540302,116.25952090000001,-0.088613845,-0.056174286,-0.068728045,-4.3402415e-06,0.00040481982,0.0,0.021621391,0.005747261,-0.026408453,-0.008036058,0.03996568,-0.039126333,0.19801445,0.009513375,0.010268735,0.002983026,0.0022038636,-0.12539054,49.95361,0.1,0.17348178,0.33487976,0.12177423,0.08438448,inf,inf,inf,inf,1,1,1,1,2,0,2,1,2,1,1,1,0
42492000,42492000,5504000,40.1540302,116.25952090000001,-0.08523986,-0.047255322,-0.06253911,-4.3402415e-06,0.00040481982,0.0,0.020632483,0.008651472,-0.016880844,0.009236012,0.03996568,-0.039126333,0.19801445,0.0061386838,0.0080243815,0.00039115545,0.0023589337,-0.12539054,49.95361,0.10746562,0.17210892,0.33317026,0.11862311,0.085310034,inf,inf,inf,inf,1,1,1,1,2,0,2,1,2,1,1,1,0
42992000,42992000,5504000,40.1540302,116.25952090000001,-0.096564576,-0.03971842,-0.043263186,-4.3402415e-06,0.00040481982,0.0,0.008381816,0.012612903,-0.004512248,0.028087104,0.03996568,-0.039126333,0.19801445,0.0015100528,0.008707818,0.0021420417,0.0024709853,-0.12539054,49.95361,0.1,0.17151006,0.33350095,0.11619052,0.086437345,inf,inf,inf,inf,1,1,1,1,2,0,2,1,2,1,1,1,0
