timestamp,timestamp_sample,ref_timestamp,ref_lat,ref_lon,x,y,z,delta_xy[0],delta_xy[1],delta_z,vx,vy,vz,z_deriv,delta_vxy[0],delta_vxy[1],delta_vz,ax,ay,az,heading,delta_heading,ref_alt,dist_bottom,eph,epv,evh,evv,vxy_max,vz_max,hagl_min,hagl_max,xy_valid,z_valid,v_xy_valid,v_z_valid,xy_reset_counter,z_reset_counter,vxy_reset_counter,vz_reset_counter,heading_reset_counter,xy_global,z_global,dist_bottom_valid,dist_bottom_sensor_bitfield
749000,749000,0,nan,nan,1.7061338e-19,4.7951624e-19,2.0529397e-07,0.0,0.0,0.0,0.0,1.0655917e-16,4.513254e-05,4.5174693e-05,4.1633363e-17,-0.0,0.0,-4.6259294e-15,1.2335812e-14,0.004970365,0.121145904,0.121145904,nan,0.10000009,0.70622146,3.5000029,7.071068,0.45001808,inf,inf,inf,inf,0,1,0,1,1,0,1,0,1,0,0,1,2
997000,997000,0,nan,nan,-1.8835641e-16,7.2776695e-16,0.004252636,0.0,0.0,0.0,-1.3862989e-15,5.615365e-15,0.0016355342,0.0054808194,4.1633363e-17,-0.0,0.0,-4.6259294e-15,1.2335812e-14,0.004970365,0.121145904,0.121145904,nan,0.105045445,0.75480384,1.5663112,4.528785,0.45237124,inf,inf,inf,inf,0,1,0,1,1,0,1,0,1,0,0,1,2
1492000,1492000,0,nan,nan,3.7941558e-15,-3.642891e-14,0.00016625781,0.0,0.0,0.0,2.2689085e-14,-2.0219668e-13,0.0040730787,0.0010917253,4.1633363e-17,-0.0,0.0,8.5001444e-14,-7.077671e-13,0.0049276273,0.121145904,0.121145904,nan,0.1,0.74227583,0.916242,1.8550954,0.4670296,inf,inf,inf,inf,0,1,0,1,1,0,1,0,1,0,0,1,2
2001000,2001000,0,nan,nan,2.1394445e-14,-1.8434379e-13,-0.0027721808,0.0,0.0,0.0,6.463041e-14,-5.514562e-13,0.006318304,0.00044462064,4.1633363e-17,-0.0,0.0,6.418476e-14,-5.4123367e-13,0.0049369405,0.121145904,0.121145904,nan,0.1,0.53075737,0.7550071,1.260394,0.49626753,inf,inf,inf,inf,0,1,0,1,1,0,1,0,1,0,0,1,2
2498000,2498000,0,nan,nan,3.2653493e-14,-2.771671e-13,0.00012015816,0.0,0.0,0.0,2.7103418e-14,-2.398672e-13,0.008886529,0.005153048,4.1633363e-17,-0.0,0.0,-3.1086245e-13,2.5424107e-12,0.0051170588,0.121145904,0.121145904,nan,0.10229661,0.6176001,0.7261726,1.499413,0.5262763,inf,inf,inf,inf,0,1,0,1,1,0,1,0,1,0,0,1,2
2997000,2997000,0,nan,nan,1.8369158e-14,-1.5665984e-13,0.0048806733,0.0,0.0,0.0,5.998513e-14,-5.0277507e-13,0.011082129,0.008450235,4.1633363e-17,-0.0,0.0,1.4571676e-13,-1.2073674e-12,0.0048987563,0.121145904,0.121145904,nan,0.1,0.74192286,0.74353594,1.6547687,0.5476176,inf,inf,inf,inf,0,1,0,1,1,0,1,0,1,0,0,1,2
3492000,3492000,0,nan,nan,4.0930384e-14,-3.369791e-13,0.006846834,0.0,0.0,0.0,1.7474296e-13,-1.4382735e-12,0.011479094,0.0066465237,4.1633363e-17,-0.0,0.0,2.2135072e-12,-1.8226162e-11,0.0039183847,0.121145904,0.121145904,nan,0.1,0.58661366,0.7560462,1.3054125,0.54842484,inf,inf,inf,inf,0,1,0,1,1,0,1,0,1,0,0,1,2
3997000,3997000,0,nan,nan,-2.7626832e-14,2.3228956e-13,0.0058164834,0.0,0.0,0.0,1.8096322e-13,-1.4771138e-12,0.01043036,0.0030449617,4.1633363e-17,-0.0,0.0,2.702699e-12,-2.2218337e-11,0.0036861745,0.121145904,0.121145904,nan,0.1,0.67940193,0.78280807,1.2892828,0.54056734,inf,inf,inf,inf,0,1,0,1,1,0,1,0,1,0,0,1,2
4501000,4488000,0,nan,nan,-1.9625587e-13,1.6249583e-12,0.0027137983,0.0,0.0,0.0,1.883924e-13,-1.5234479e-12,0.008226164,-0.0019225718,4.1633363e-17,-0.0,0.0,4.012415e-12,-3.297362e-11,0.0030649824,0.121145904,0.121145904,nan,0.1,0.5353165,0.8203351,0.9892441,0.53179526,inf,inf,inf,inf,0,1,0,1,1,0,1,0,1,0,0,1,2
4996000,4988000,0,nan,nan,-1.583432e-13,1.3184336e-12,0.003235365,0.0,0.0,0.0,4.7940157e-13,-3.9116267e-12,0.00797684,-0.0010462725,4.1633363e-17,-0.0,0.0,5.6152995e-12,-4.614364e-11,0.0023050231,0.121145904,0.121145904,nan,0.1,0.5790539,0.8250605,1.0148937,0.5102707,inf,inf,inf,inf,0,1,0,1,1,0,1,0,1,0,0,1,2
5501000,5488000,0,nan,nan,6.110927e-11,-1.1990503e-05,-0.0033921956,0.0,0.0,0.0,4.4446996e-10,-6.727727e-05,0.0044209617,-0.008224655,4.1633363e-17,-0.0,0.0,1.9641493e-09,-0.00021345529,0.0028479842,0.12116426,0.121145904,nan,0.1,0.6423875,0.8109211,1.0261624,0.48285463,inf,inf,inf,inf,0,1,0,1,1,0,1,0,1,0,0,1,2
6001000,5988000,5492000,40.1540302,116.2594857,1.0006126e-09,-8.369999e-05,-0.011078898,0.0,0.0,0.0,3.9200803e-09,-0.00026659208,0.00096021214,-0.013665801,4.1633363e-17,-0.0,0.0,9.0071905e-09,-0.0004543674,0.00188819,0.12118726,0.121145904,49.92359,0.1,0.5137642,0.80743486,0.81677336,0.46307895,inf,inf,inf,inf,0,1,0,1,1,0,1,0,1,1,1,1,0
6492000,6485000,5492000,40.1540302,116.2594857,3.8478984e-09,-0.000205194,-0.010695451,0.0,0.0,0.0,1.11720135e-08,-0.00050721015,0.0016245485,-0.00636653,4.1633363e-17,-0.0,0.0,1.8502291e-08,-0.0006465624,0.00079255545,0.12121114,0.121145904,49.92359,0.10437636,0.568101,0.78826195,0.814822,0.43895882,inf,inf,inf,inf,0,1,0,1,1,0,1,0,1,1,1,1,0
6996000,6987000,5492000,40.1540302,116.2594857,-1.2053157e-07,-0.0003366854,-0.007886362,0.0,0.0,0.0,-5.1140423e-06,-0.0007211517,0.002777683,-0.0010551156,4.1633363e-17,-0.0,0.0,-9.550668e-05,-0.0007598631,-0.00041164458,-0.0041696546,-0.12540446,49.92359,0.102764964,0.47486937,0.77010155,0.6397583,0.4165692,inf,inf,inf,inf,0,1,0,1,1,0,1,0,2,1,1,1,0
7497000,7489000,5492000,40.1540302,116.2594857,-1.6680775e-05,-0.0004725938,-0.007491294,0.0,0.0,0.0,-5.695942e-05,-0.0009368473,0.0027056504,-0.0011166849,4.1633363e-17,-0.0,0.0,-8.6110536e-05,-0.0009151463,0.0017083117,-0.0041652154,-0.12540446,49.92359,0.1,0.4827162,0.7700083,0.5177071,0.40156114,inf,inf,inf,inf,0,1,0,1,1,0,1,0,2,1,1,1,0
8001000,7989000,5492000,40.1540302,116.2594857,-4.125842e-05,-0.00064898335,-0.004386705,0.0,0.0,0.0,-8.58208e-05,-0.0012108108,0.00391082,0.003181664,4.1633363e-17,-0.0,0.0,-6.8809095e-05,-0.0010410704,0.00039860603,-0.0041682315,-0.12540446,49.92359,0.10045448,0.41028276,0.752725,0.51252854,0.38037655,inf,inf,inf,inf,0,1,0,1,1,0,1,0,2,1,1,1,0
8497000,8497000,5492000,40.1540302,116.2594857,-5.551025e-05,-0.0008222488,0.0021993713,0.0,0.0,0.0,-8.4851155e-05,-0.0013826033,0.0061385958,0.0084836455,4.1633363e-17,-0.0,0.0,-3.612595e-05,-0.0010221929,0.0026319174,-0.0041662585,-0.12540446,49.92359,0.101192,0.45338678,0.75108474,0.59216285,0.36585167,inf,inf,inf,inf,0,1,0,1,1,0,1,0,2,1,1,1,0
8997000,8997000,5492000,40.1540302,116.2594857,-4.843073e-05,-0.00087694824,0.005842697,0.0,0.0,0.0,-5.2504412e-05,-0.001345605,0.0068459418,0.007788347,4.1633363e-17,-0.0,0.0,2.7403173e-06,-0.00090623443,-1.5832482e-05,-0.0041579716,-0.12540446,49.92359,0.1,0.41797668,0.7351723,0.5375647,0.34671858,inf,inf,inf,inf,0,1,0,1,1,0,1,0,2,1,1,1,0
9496000,9496000,5492000,40.1540302,116.2594857,-2.375674e-05,-0.0008019869,0.004569885,0.0,0.0,0.0,-6.2121003e-06,-0.001183505,0.0057375696,0.0024178093,4.1633363e-17,-0.0,0.0,3.462376e-05,-0.0007887177,0.0022910533,-0.00414546,-0.12540446,49.92359,0.1,0.45127508,0.73009014,0.5099648,0.33241323,inf,inf,inf,inf,0,1,0,1,1,0,1,0,2,1,1,1,0
9995000,9995000,5492000,40.1540302,116.2594857,6.0220063e-06,-0.000711784,0.0053869644,0.0,0.0,0.0,3.5504272e-05,-0.0010739502,0.005579489,0.0019006667,4.1633363e-17,-0.0,0.0,5.457469e-05,-0.0007525387,0.0017359853,-0.004133562,-0.12540446,49.92359,0.1,0.47693726,0.71226573,0.46988046,0.31442076,inf,inf,inf,inf,0,1,0,1,1,0,1,0,2,1,1,1,0
10488000,10488000,5492000,40.1540302,116.2594857,-0.020708157,0.02033508,0.041106056,-5.4496985e-07,0.00044743667,0.0,-0.038568057,0.041609313,0.07979992,0.05989049,-0.090029575,0.06088602,0.11497856,0.005788762,-0.0029298116,-0.0012945383,-0.0041404623,-0.12540446,49.92359,0.1,0.2582522,0.6232556,0.17601104,0.15836994,inf,inf,inf,inf,1,1,1,1,2,0,2,1,2,1,1,1,0
11001000,11001000,5492000,40.1540302,116.2594857,-0.0069665117,0.024719147,0.0063206404,-5.4496985e-07,0.00044743667,0.0,0.0022278803,0.026625916,0.0162801,-0.03298681,-0.090029575,0.06088602,0.11497856,0.020530133,-0.00915826,-0.0038156284,-0.0041946853,-0.12540446,49.92359,0.1,0.21086614,0.54997766,0.16411506,0.12858634,inf,inf,inf,inf,1,1,1,1,2,0,2,1,2,1,1,1,0
11498000,11498000,5492000,40.1540302,116.2594857,0.011159153,0.03139724,0.009717285,-5.4496985e-07,0.00044743667,0.0,0.027785238,0.027613992,0.014010062,-0.01460579,-0.090029575,0.06088602,0.11497856,0.029340593,-0.0026629926,-0.0035509467,-0.0041251522,-0.12540446,49.92359,0.1,0.18953738,0.50479954,0.17021433,0.11477326,inf,inf,inf,inf,1,1,1,1,2,0,2,1,2,1,1,1,0
12005000,12005000,5492000,40.1540302,116.2594857,0.005174514,0.0017599573,0.029356185,-5.4496985e-07,0.00044743667,0.0,0.009144932,-0.028917115,0.02017536,0.018887457,-0.090029575,0.06088602,0.11497856,0.0023257623,-0.047942862,0.0025900078,-0.005036944,-0.12540446,49.92359,0.12529801,0.17915702,0.46724826,0.17159164,0.10803123,inf,inf,inf,inf,1,1,1,1,2,0,2,1,2,1,1,1,0
12500000,12500000,5492000,40.1540302,116.2594857,-0.012570994,-0.010485351,0.034480877,-5.4496985e-07,0.00044743667,0.0,-0.012763887,-0.03222082,0.017993208,0.0067380085,-0.090029575,0.06088602,0.11497856,-0.0096809035,-0.027834747,-0.0036330891,-0.0061823647,-0.12540446,49.92359,0.10221649,0.17571001,0.4438753,0.16519879,0.105972216,inf,inf,inf,inf,1,1,1,1,2,0,2,1,2,1,1,1,0
12993000,12993000,5492000,40.1540302,116.2594857,0.001729322,-0.01093238,0.05430655,-5.4496985e-07,0.00044743667,0.0,0.011897975,-0.026473792,0.024121657,0.022331994,-0.090029575,0.06088602,0.11497856,0.01167799,-0.018196838,-0.0024614853,-0.0066562286,-0.12540446,49.92359,0.1,0.1811615,0.4275075,0.17164312,0.1075894,inf,inf,inf,inf,1,1,1,1,2,0,2,1,2,1,1,1,0
13496000,13496000,5492000,40.1540302,116.2594857,-0.0017533653,-0.01025021,0.04188791,-5.4496985e-07,0.00044743667,0.0,0.0023410087,-0.02194686,0.01449345,-0.012229515,-0.090029575,0.06088602,0.11497856,-0.0006887192,-0.013700326,-0.009445473,-0.0068239486,-0.12540446,49.92359,0.1,0.17717083,0.4084671,0.16758023,0.105028294,inf,inf,inf,inf,1,1,1,1,2,0,2,1,2,1,1,1,0
13997000,13997000,5492000,40.1540302,116.2594857,0.0065051364,-0.013911807,-0.030961707,-5.4496985e-07,0.00044743667,0.0,0.012986665,-0.021945626,-0.01784289,-0.084258765,-0.090029575,0.06088602,0.11497856,0.008255435,-0.010622118,-0.005329294,-0.0068814205,-0.12540446,49.92359,0.104103066,0.17340212,0.39498687,0.15936533,0.09431209,inf,inf,inf,inf,1,1,1,1,2,0,2,1,2,1,1,1,0
14496000,14496000,5492000,40.1540302,116.2594857,0.025830358,-0.013953316,-0.035833903,-5.4496985e-07,0.00044743667,0.0,0.03246984,-0.015316473,-0.019612594,-0.05332547,-0.090029575,0.06088602,0.11497856,0.017695993,-0.0015026381,-0.008863396,-0.006759169,-0.12540446,49.92359,0.10209292,0.17521806,0.38426122,0.15812108,0.090273,inf,inf,inf,inf,1,1,1,1,2,0,2,1,2,1,1,1,0
14992000,14992000,5492000,40.1540302,116.2594857,0.03622121,-0.007134188,-0.06441458,-5.4496985e-07,0.00044743667,0.0,0.03669184,-0.004426059,-0.032791164,-0.0646358,-0.090029575,0.06088602,0.11497856,0.01557457,0.0030417356,-0.004121102,-0.006321535,-0.12540446,49.92359,0.103266284,0.17896095,0.3791641,0.15320772,0.092013806,inf,inf,inf,inf,1,1,1,1,2,0,2,1,2,1,1,1,0
15501000,15501000,5492000,40.1540302,116.2594857,0.061002295,-0.0031184005,-0.09430326,-5.4496985e-07,0.00044743667,0.0,0.05716707,0.002189935,-0.044347644,-0.07151485,-0.090029575,0.06088602,0.11497856,0.025759183,0.0062985164,-0.0075793695,-0.005884971,-0.12540446,49.92359,0.10527954,0.17497043,0.3714955,0.15029326,0.08954621,inf,inf,inf,inf,1,1,1,1,2,0,2,1,2,1,1,1,0
15997000,15997000,5492000,40.1540302,116.2594857,0.06783894,-0.0035743993,-0.12230581,-5.4496985e-07,0.00044743667,0.0,0.05406785,0.0007646335,-0.054051362,-0.07206278,-0.090029575,0.06088602,0.11497856,0.01836647,0.002158305,-0.011366791,-0.0052781235,-0.12540446,49.92359,0.11347823,0.17448181,0.36415797,0.14708434,0.08487828,inf,inf,inf,inf,1,1,1,1,2,0,2,1,2,1,1,1,0
16501000,16501000,5492000,40.1540302,116.2594857,0.052940384,-0.0140122995,-0.12830266,-5.4496985e-07,0.00044743667,0.0,0.029724594,-0.006628363,-0.05351417,-0.048722386,-0.090029575,0.06088602,0.11497856,0.0011224116,0.0039128135,-0.009403378,-0.00508284,-0.12540446,49.92359,0.11432266,0.17546582,0.3605335,0.14400034,0.08556913,inf,inf,inf,inf,1,1,1,1,2,0,2,1,2,1,1,1,0
17003000,17003000,5492000,40.1540302,116.2594857,0.01946286,-0.021701088,-0.12804471,-5.4496985e-07,0.00044743667,0.0,-0.0051949928,-0.012404421,-0.049213193,-0.024819419,-0.090029575,0.06088602,0.11497856,-0.0107138045,-0.0017827862,-0.00413933,-0.004922387,-0.12540446,49.92359,0.13024242,0.17193532,0.35375103,0.14019617,0.0855755,inf,inf,inf,inf,1,1,1,1,2,0,2,1,2,1,1,1,0
17495000,17495000,5492000,40.1540302,116.2594857,0.0015461494,-0.03772364,-0.106148385,-5.4496985e-07,0.00044743667,0.0,-0.016670693,-0.026009075,-0.038204104,0.0051350547,-0.090029575,0.06088602,0.11497856,-0.011079235,-0.0072854185,-0.0047247326,-0.0049508866,-0.12540446,49.92359,0.10815092,0.17173478,0.35107717,0.13499954,0.083219774,inf,inf,inf,inf,1,1,1,1,2,0,2,1,2,1,1,1,0
18004000,18004000,5492000,40.1540302,116.2594857,-0.0081910845,-0.026226236,-0.076832235,-5.4496985e-07,0.00044743667,0.0,-0.022642095,-0.0083062155,-0.02396502,0.037989568,-0.090029575,0.06088602,0.11497856,-0.013056119,0.0055443845,-0.0029122455,-0.0049480065,-0.12540446,49.92359,0.12861863,0.17333083,0.3482913,0.13285996,0.08558516,inf,inf,inf,inf,1,1,1,1,2,0,2,1,2,1,1,1,0
18497000,18497000,5492000,40.1540302,116.2594857,-0.02519045,-0.021358974,-0.016416514,-5.4496985e-07,0.00044743667,0.0,-0.036092848,-0.005894783,0.004187014,0.091248445,-0.090029575,0.06088602,0.11497856,-0.019014126,0.000960461,0.0028109977,-0.00471004,-0.12540446,49.92359,0.12327089,0.17074354,0.3457159,0.12784448,0.08895199,inf,inf,inf,inf,1,1,1,1,2,0,2,1,2,1,1,1,0
19000000,19000000,5492000,40.1540302,116.2594857,-0.031267423,-0.033280794,0.012450101,-5.4496985e-07,0.00044743667,0.0,-0.035830338,-0.016738372,0.014063398,0.07750095,-0.090029575,0.06088602,0.11497856,-0.0146747455,-0.0029064273,0.002735191,-0.0046879146,-0.12540446,49.92359,0.1,0.1693559,0.34240803,0.12535113,0.092811964,inf,inf,inf,inf,1,1,1,1,2,0,2,1,2,1,1,1,0
19498000,19498000,5492000,40.1540302,116.2594857,-0.0537715,-0.013286062,0.018094098,-5.4496985e-07,0.00044743667,0.0,-0.053219732,0.0052493736,0.014280674,0.047672506,-0.090029575,0.06088602,0.11497856,-0.0226478,0.009560906,-0.00094398856,-0.004576644,-0.12540446,49.92359,0.1,0.16903561,0.34164602,0.12324479,0.096439,inf,inf,inf,inf,1,1,1,1,2,0,2,1,2,1,1,1,0
20001000,20001000,5492000,40.1540302,116.2594857,-0.06939882,-0.013936875,-0.004135149,-5.4496985e-07,0.00044743667,0.0,-0.05975205,0.00035708898,-0.000119416974,-0.0013319768,-0.090029575,0.06088602,0.11497856,-0.021673331,0.0022294973,-0.0019129365,-0.004385554,-0.12540446,49.92359,0.1,0.1681793,0.33927014,0.12159676,0.09865675,inf,inf,inf,inf,1,1,1,1,2,0,2,1,2,1,1,1,0
20500000,20500000,5492000,40.1540302,116.2594857,-0.07356121,-0.009266728,-0.00879337,-5.4496985e-07,0.00044743667,0.0,-0.056039866,0.005667116,0.00056821725,0.003212781,-0.090029575,0.06088602,0.11497856,-0.01777523,0.0071554463,0.0005392357,-0.0043097497,-0.12540446,49.92359,0.113658346,0.16683872,0.3384209,0.119069465,0.09965489,inf,inf,inf,inf,1,1,1,1,2,0,2,1,2,1,1,1,0
20997000,20997000,5492000,40.1540302,116.2594857,-0.048316713,-0.008763156,0.022413434,-5.4496985e-07,0.00044743667,0.0,-0.028009778,0.0030940904,0.01709133,0.036418002,-0.090029575,0.06088602,0.11497856,-0.0055280053,0.0027129534,0.002382323,-0.0041293595,-0.12540446,49.92359,0.1,0.1752263,0.33916983,0.12454597,0.10288624,inf,inf,inf,inf,1,1,1,1,2,0,2,1,2,1,1,1,0
21498000,21498000,5492000,40.1540302,116.2594857,-0.026779618,-0.0069650966,-0.004674962,-5.4496985e-07,0.00044743667,0.0,-0.009758666,0.004526614,-0.0014221764,-0.0146568,-0.090029575,0.06088602,0.11497856,-0.0015153995,0.004841954,0.0006299127,-0.0040174774,-0.12540446,49.92359,0.1,0.1736144,0.33889133,0.12152089,0.10223836,inf,inf,inf,inf,1,1,1,1,2,0,2,1,2,1,1,1,0
21999000,21999000,5492000,40.1540302,116.2594857,-0.0049823695,-0.017782094,-0.009938867,-5.4496985e-07,0.00044743667,0.0,0.0065220967,-0.005329657,0.015725369,0.008809544,-0.090029575,0.06088602,0.11497856,0.0010626258,0.00046143075,3.571381,-0.0038728595,-0.12540446,49.92359,0.10521226,0.17258206,0.33723408,0.12034042,0.10112245,inf,inf,inf,inf,1,1,1,1,2,0,2,1,2,1,1,1,0
22493000,22493000,5492000,40.1540302,116.2594857,-0.016838077,0.012876153,-0.017872447,-5.4496985e-07,0.00044743667,0.0,-0.015432165,0.031170012,-0.028176399,-0.043753654,-0.090029575,0.06088602,0.11497856,-0.035192586,0.034684386,2.749136,-0.0034530358,-0.12540446,49.92359,0.115916945,0.17336094,0.3367252,0.16332659,0.10015821,inf,inf,inf,inf,1,1,1,1,2,0,2,1,2,1,1,1,0
22995000,22995000,5492000,40.1540302,116.2594857,-0.023725621,0.05207384,-0.048626315,-5.4496985e-07,0.00044743667,0.0,-0.011641275,0.040564746,-0.12951434,-0.15111776,-0.090029575,0.06088602,0.11497856,-0.00090412266,-0.20409732,-0.5850246,-0.0018758993,-0.12540446,49.92359,0.14667082,0.17367528,0.33727556,0.18505383,0.09875616,inf,inf,inf,inf,1,1,1,1,2,0,2,1,2,1,1,1,0
23497000,23497000,5492000,40.1540302,116.2594857,-0.004335396,-0.015824948,-0.2844631,-5.4496985e-07,0.00044743667,0.0,-0.00036181745,-0.07828391,-0.43300843,-0.4750095,-0.090029575,0.06088602,0.11497856,-0.04712453,0.051757727,0.5105101,0.0019509451,-0.12540446,49.92359,0.38250762,0.17474978,0.33679023,0.17603974,0.09733104,inf,inf,inf,inf,1,1,1,1,2,0,2,1,2,1,1,1,0
24001000,24001000,5492000,40.1540302,116.2594857,-0.0058140475,-0.08048672,-0.4888095,-5.4496985e-07,0.00044743667,0.0,-0.028965121,-0.050337646,-0.26835614,-0.31584033,-0.090029575,0.06088602,0.11497856,-0.051891554,0.15559661,0.28597116,0.0023831541,-0.12540446,49.92359,0.586854,0.1736567,0.33687648,0.15932779,0.09565459,inf,inf,inf,inf,1,1,1,1,2,0,2,1,2,1,1,1,0
24500000,24500000,5492000,40.1540302,116.2594857,-0.041355357,-0.09003399,-0.59865654,-5.4496985e-07,0.00044743667,0.0,-0.03894837,0.026037367,-0.19515185,-0.21837349,-0.090029575,0.06088602,0.11497856,0.043006882,0.117893845,0.10973588,0.0009286212,-0.12540446,49.92359,0.69670105,0.17362735,0.33600563,0.14615482,0.094297186,inf,inf,inf,inf,1,1,1,1,2,0,2,1,2,1,1,1,0
25001000,25001000,5492000,40.1540302,116.2594857,-0.07666487,-0.033446573,-0.663804,-5.4496985e-07,0.00044743667,0.0,-0.02395967,0.06123019,-0.1698866,-0.16435328,-0.090029575,0.06088602,0.11497856,0.0776418,-0.052906916,0.057184134,0.00043790592,-0.12540446,49.92359,0.7618485,0.17335065,0.3370875,0.1346045,0.09329749,inf,inf,inf,inf,1,1,1,1,2,0,2,1,2,1,1,1,0
25500000,25500000,5492000,40.1540302,116.2594857,-0.10753735,-0.004085689,-0.6925736,-5.4496985e-07,0.00044743667,0.0,0.002628339,0.028942699,-0.16895069,-0.12447961,-0.090029575,0.06088602,0.11497856,0.10803972,-0.06484676,-0.035399567,0.0001609551,-0.12540446,49.92359,0.7906181,0.17142184,0.33561328,0.12464435,0.09198333,inf,inf,inf,inf,1,1,1,1,2,0,2,1,2,1,1,1,0
26004000,26004000,5492000,40.1540302,116.2594857,-0.101485066,0.013990723,-0.7478026,-5.4496985e-07,0.00044743667,0.0,0.039914925,0.003749904,-0.14713205,-0.102147914,-0.090029575,0.06088602,0.11497856,0.058959108,-0.06384618,0.052968036,-0.00022833711,-0.12540446,49.92359,0.84584713,0.17097199,0.3366801,0.11791103,0.09136186,inf,inf,inf,inf,1,1,1,1,2,0,2,1,2,1,1,1,0
26501000,26501000,5492000,40.1540302,116.2594857,-0.04816851,0.011284549,-0.7692251,-5.4496985e-07,0.00044743667,0.0,0.061492085,-0.0103944205,0.01916322,0.07403898,-0.090029575,0.06088602,0.11497856,-0.064081445,-0.00042595362,1.3355296,-0.0005620344,-0.12540446,49.92359,0.86726964,0.16971606,0.3372103,0.11245629,0.09069982,inf,inf,inf,inf,1,1,1,1,2,0,2,1,2,1,1,1,0
26998000,26998000,5492000,40.1540302,116.2594857,-0.0036614395,0.036431596,-0.689037,-5.4496985e-07,0.00044743667,0.0,0.034883123,0.0078041777,0.04470639,0.1073382,-0.090029575,0.06088602,0.11497856,-0.09315144,-0.038895678,-0.2509795,-0.0007601087,-0.12540446,49.92359,0.78708154,0.16809247,0.3357183,0.108580194,0.08992699,inf,inf,inf,inf,1,1,1,1,2,0,2,1,2,1,1,1,0
27496000,27496000,5492000,40.1540302,116.2594857,-0.0004624918,0.0373164,-0.6454876,-5.4496985e-07,0.00044743667,0.0,-0.0059369537,-0.01570451,-0.041278735,0.02671335,-0.090029575,0.06088602,0.11497856,-0.050078813,-0.031743355,-0.09728502,-0.0010781809,-0.12540446,49.92359,0.7435321,0.16706768,0.3347598,0.1062805,0.08944405,inf,inf,inf,inf,1,1,1,1,2,0,2,1,2,1,1,0,0
27993000,27993000,5492000,40.1540302,116.2594857,-0.0066495514,0.010553203,-0.69253635,-5.4496985e-07,0.00044743667,0.0,-0.017637732,-0.020675544,-0.02306603,-0.0071181105,-0.090029575,0.06088602,0.11497856,-0.01771124,0.029793836,0.1459252,-0.0014108176,-0.12540446,49.92359,0.79058087,0.16610861,0.33536112,0.10489614,0.089179054,inf,inf,inf,inf,1,1,1,1,2,0,2,1,2,1,1,0,0
28500000,28500000,5492000,40.1540302,116.2594857,-0.044873524,-0.0065207765,-0.68618906,-5.4496985e-07,0.00044743667,0.0,-0.029504221,-0.0073271445,-0.006569894,0.014526358,-0.090029575,0.06088602,0.11497856,0.05803152,0.039101366,-0.12577201,-0.0016647197,-0.12540446,49.92359,0.78423357,0.1649022,0.33547845,0.10459099,0.08885395,inf,inf,inf,inf,1,1,1,1,2,0,2,1,2,1,1,0,0
28996000,28996000,5492000,40.1540302,116.2594857,-0.060101844,-0.019844435,-0.69157135,-5.4496985e-07,0.00044743667,0.0,0.007866469,0.009810579,-0.034657944,-0.019546865,-0.090029575,0.06088602,0.11497856,0.06557714,0.04121453,0.078044824,-0.0014763756,-0.12540446,49.92359,0.78961587,0.1721261,0.3370894,0.110100396,0.090628274,inf,inf,inf,inf,1,1,1,1,2,0,2,1,2,1,1,0,0
29501000,29501000,5492000,40.1540302,116.2594857,-0.0520007,-0.043207582,-0.69674385,-5.4496985e-07,0.00044743667,0.0,0.023052763,0.01620045,-0.021127604,-0.005663914,-0.090029575,0.06088602,0.11497856,0.016272033,0.07659374,0.0012800097,-0.0008951499,-0.12540446,49.92359,0.79478836,0.17137858,0.3360804,0.11024005,0.09037055,inf,inf,inf,inf,1,1,1,1,2,0,2,1,2,1,1,0,0
30000000,30000000,5492000,40.1540302,116.2594857,-0.04220504,-0.043770827,-0.7174543,-5.4496985e-07,0.00044743667,0.0,0.024514332,0.045395344,-0.0026242249,-0.003105432,-0.090029575,0.06088602,0.11497856,-0.011920496,0.033524025,0.3455756,-0.00047933456,-0.12540446,49.92359,0.8154988,0.17075644,0.33664235,0.110066794,0.09027402,inf,inf,inf,inf,1,1,1,1,2,0,2,1,2,1,1,0,0
30504000,30504000,5492000,40.1540302,116.2594857,-0.07278717,-0.014624992,-0.733097,-5.4496985e-07,0.00044743667,0.0,-0.005448846,0.02891638,0.019214926,0.001727871,-0.090029575,0.06088602,0.11497856,2.528339,-0.028797783,0.09724125,1.0150626e-05,-0.12540446,49.92359,0.83114153,0.17089368,0.33766526,0.110007614,0.09039099,inf,inf,inf,inf,1,1,1,1,2,0,2,1,2,1,1,0,0
31005000,31005000,5492000,40.1540302,116.2594857,0.04965414,0.008338266,-0.75146514,-5.4496985e-07,0.00044743667,0.0,0.21545607,0.02072321,0.013241568,-0.012954266,-0.090029575,0.06088602,0.11497856,-0.17371698,-0.013017002,0.022711854,0.00015781733,-0.12540446,49.92359,0.84950966,0.17050296,0.3366221,0.11069156,0.09019508,inf,inf,inf,inf,1,1,1,1,2,0,2,1,2,1,1,0,0
31496000,31496000,5492000,40.1540302,116.2594857,0.06797417,0.04348321,-0.716595,-5.4496985e-07,0.00044743667,0.0,0.11839611,0.023794804,0.016743695,0.023150997,-0.090029575,0.06088602,0.11497856,2.6973336,-0.03415907,-0.07117539,0.00075449573,-0.12540446,49.92359,0.8146395,0.16945957,0.33666742,0.11038267,0.08994413,inf,inf,inf,inf,1,1,1,1,2,0,2,1,2,1,1,0,0
31997000,31997000,5492000,40.1540302,116.2594857,0.028476441,0.047875647,-0.71452934,-5.4496985e-07,0.00044743667,0.0,0.01997467,0.0023461694,0.013142318,0.013867806,-0.090029575,0.06088602,0.11497856,-3.6417742,-0.0119150495,0.036820766,0.0012389569,-0.12540446,49.92359,0.81257385,0.16970795,0.33615988,0.10989179,0.08995364,inf,inf,inf,inf,1,1,1,1,2,0,2,1,2,1,1,0,0
32489000,32489000,5492000,40.1540302,116.2594857,-0.05309686,0.039192002,-0.6750377,-5.4496985e-07,0.00044743667,0.0,-0.121001266,-0.0011434429,0.010545332,0.03558386,-0.090029575,0.06088602,0.11497856,-2.0874867,0.0065232175,-0.10060332,0.0014678633,-0.12540446,49.92359,0.7730822,0.16850294,0.33621338,0.10941485,0.089683086,inf,inf,inf,inf,1,1,1,1,2,0,2,1,2,1,1,0,0
33000000,33000000,5492000,40.1540302,116.2594857,-0.13206774,0.05828446,-0.64666504,-5.4496985e-07,0.00044743667,0.0,-0.11196779,0.009512275,0.013404249,0.04647065,-0.090029575,0.06088602,0.11497856,-2.729481,-0.02148429,-0.06930064,0.0017438577,-0.12540446,49.92359,0.74470955,0.16881502,0.335717,0.109662175,0.08970514,inf,inf,inf,inf,1,1,1,1,2,0,2,1,2,1,1,0,0
33493000,33493000,5492000,40.1540302,116.2594857,-0.1269739,0.0837351,-0.63484937,-5.4496985e-07,0.00044743667,0.0,0.007737819,0.0112958355,0.0069461153,0.031380992,-0.090029575,0.06088602,0.11497856,2.075787,-0.029632447,0.0021271405,0.0022985986,-0.12540446,49.92359,0.7328939,0.16768894,0.33577636,0.10801527,0.08945175,inf,inf,inf,inf,1,1,1,1,2,0,2,1,2,1,1,0,0
33995000,33995000,5492000,40.1540302,116.2594857,-0.051091664,0.10246535,-0.64788216,-5.4496985e-07,0.00044743667,0.0,0.22421323,0.005232722,-0.000784941,-0.00093431305,-0.090029575,0.06088602,0.11497856,0.8342106,-0.025539879,0.0047981734,0.00277566,-0.12540446,49.92359,0.7459267,0.16716406,0.33631366,0.10752884,0.08938381,inf,inf,inf,inf,1,1,1,1,2,0,2,1,2,1,1,0,0
34497000,34497000,5492000,40.1540302,116.2594857,0.07013658,0.08877096,-0.6432265,-5.4496985e-07,0.00044743667,0.0,0.17111565,-0.011659059,0.0071654366,0.012404224,-0.090029575,0.06088602,0.11497856,-0.87758464,-0.005864889,0.05354173,0.0030111468,-0.12540446,49.92359,0.741271,0.16741246,0.33580732,0.107135884,0.08942969,inf,inf,inf,inf,1,1,1,1,2,0,2,1,2,1,1,0,0
34996000,34996000,5492000,40.1540302,116.2594857,0.0074847457,0.07522692,-0.62228817,-5.4496985e-07,0.00044743667,0.0,0.03641141,-0.012383183,0.0057626017,0.02224038,-0.090029575,0.06088602,0.11497856,-0.90714544,0.0022982596,-0.010690838,0.0030865516,-0.12540446,49.92359,0.7203327,0.16489227,0.3349089,0.10545734,0.08875325,inf,inf,inf,inf,1,1,1,1,2,0,2,1,2,1,1,0,0
35489000,35489000,5492000,40.1540302,116.2594857,-0.1268598,0.04447865,-0.5948987,-5.4496985e-07,0.00044743667,0.0,-0.1433341,-0.022483919,0.0033763803,0.02954236,-0.090029575,0.06088602,0.11497856,-0.00012580129,0.027976964,-0.035666857,0.0032520033,-0.12540446,49.92359,0.6929432,0.16600606,0.33499104,0.1056609,0.08903358,inf,inf,inf,inf,1,1,1,1,2,0,2,1,2,1,1,0,0
35997000,35997000,5492000,40.1540302,116.2594857,-0.11559909,0.03359262,-0.63992935,-5.4496985e-07,0.00044743667,0.0,0.05812154,-0.011878849,-0.00086669956,-0.02119247,-0.090029575,0.06088602,0.11497856,-1.6818992,0.005500678,0.10232999,0.003060927,-0.12540446,49.92359,0.73797387,0.16616863,0.33453843,0.10538172,0.08907504,inf,inf,inf,inf,1,1,1,1,2,0,2,1,2,1,1,0,0
36505000,36505000,5492000,40.1540302,116.2594857,-0.11907953,0.018548522,-0.69811714,-5.4496985e-07,0.00044743667,0.0,0.19570187,-0.007954491,-0.0040143616,-0.057379983,-0.090029575,0.06088602,0.11497856,2.1466713,0.026828315,-0.016685989,0.0024899412,-0.12540446,49.92359,0.79616165,0.16568856,0.33516663,0.10480523,0.08904389,inf,inf,inf,inf,1,1,1,1,2,0,2,1,2,1,1,0,0
37004000,37004000,5492000,40.1540302,116.2594857,-0.15608071,0.024323532,-0.6864728,-5.4496985e-07,0.00044743667,0.0,0.11701214,-0.00017778737,0.004051539,-0.016300399,-0.090029575,0.06088602,0.11497856,-0.64975905,-0.0056310813,0.022107733,0.0019968129,-0.12540446,49.92359,0.7845173,0.16534016,0.33428922,0.104619026,0.08891496,inf,inf,inf,inf,1,1,1,1,2,0,2,1,2,1,1,0,0
37497000,37497000,5492000,40.1540302,116.2594857,-0.1875871,0.016144942,-0.6693206,-5.4496985e-07,0.00044743667,0.0,0.13701336,-0.0063826786,0.0039326763,0.0056073745,-0.090029575,0.06088602,0.11497856,1.3992616,0.0022696902,-0.05421694,0.001348358,-0.12540446,49.92359,0.7673651,0.1720452,0.33693883,0.10856973,0.09071601,inf,inf,inf,inf,1,1,1,1,2,0,2,1,2,1,1,0,0
38005000,38005000,5492000,40.1540302,116.2594857,-0.294261,0.0028170564,-0.6702264,-5.4496985e-07,0.00044743667,0.0,0.021046957,-0.006881408,0.002567294,0.0017055451,-0.090029575,0.06088602,0.11497856,-2.0666583,0.0074587977,0.0477367,0.0006322508,-0.12540446,49.92359,0.7682709,0.1717263,0.33605045,0.10854761,0.09058584,inf,inf,inf,inf,1,1,1,1,2,0,2,1,2,1,1,0,0
38501000,38501000,5492000,40.1540302,116.2594857,-0.46168748,-0.031461924,-0.64312786,-5.4496985e-07,0.00044743667,0.0,0.017652301,-0.018750314,0.002219525,0.021079322,-0.090029575,0.06088602,0.11497856,2.924088,0.029916,-0.035285015,-0.00034367136,-0.12540446,49.92359,0.7411724,0.17123307,0.3366888,0.108101256,0.09052813,inf,inf,inf,inf,1,1,1,1,2,0,2,1,2,1,1,0,0
38997000,38997000,5492000,40.1540302,116.2594857,-0.5629736,-0.058255993,-0.6556868,-5.4496985e-07,0.00044743667,0.0,-0.012270169,-0.014106031,-0.0026896202,-0.0032945203,-0.090029575,0.06088602,0.11497856,-3.2803354,0.0394263,0.060256567,-0.0012434191,-0.12540446,49.92359,0.7537313,0.17014873,0.3353385,0.10747904,0.09018127,inf,inf,inf,inf,1,1,1,1,2,0,2,1,2,1,1,0,0
39501000,39501000,5492000,40.1540302,116.2594857,-0.5901149,-0.07332115,-0.6443329,-5.4496985e-07,0.00044743667,0.0,-0.1989051,-0.0074942657,0.001018565,0.01055157,-0.090029575,0.06088602,0.11497856,-0.1608799,0.032090064,-0.030201674,-0.0023607821,-0.12540446,49.92359,0.7423774,0.17032748,0.3365038,0.106595434,0.09030565,inf,inf,inf,inf,1,1,1,1,2,0,2,1,2,1,1,0,0
40000000,40000000,5492000,40.1540302,116.2594857,-0.55424756,-0.05972997,-0.65572655,-5.4496985e-07,0.00044743667,0.0,-0.030468393,0.0072145485,0.00068430655,-0.0016597955,-0.090029575,0.06088602,0.11497856,-4.1370587,0.016114624,-0.042383555,-0.0031954022,-0.12540446,49.92359,0.75377107,0.16989498,0.33562216,0.10644092,0.09014347,inf,inf,inf,inf,1,1,1,1,2,0,2,1,2,1,1,0,0
40497000,40497000,5492000,40.1540302,116.2594857,-0.3612821,-0.03831624,-0.63806975,-5.4496985e-07,0.00044743667,0.0,0.08195806,0.009058598,0.002195665,0.013018029,-0.090029575,0.06088602,0.11497856,2.3500159,-0.020697488,-0.07410347,-0.004028527,-0.12540446,49.92359,0.73611426,0.16892725,0.3343051,0.10645254,0.089824766,inf,inf,inf,inf,1,1,1,1,2,0,2,1,2,1,1,0,0
41000000,41000000,5492000,40.1540302,116.2594857,-0.12744467,-0.028397879,-0.5442598,-5.4496985e-07,0.00044743667,0.0,0.15036312,0.004239305,0.5916124,0.60319954,-0.090029575,0.06088602,0.11497856,0.74241716,-0.07459025,2.001267,0.062122904,-0.12540446,49.92359,0.6423043,0.16907245,0.3355129,0.10417159,0.08998613,inf,inf,inf,inf,1,1,1,1,2,0,2,1,2,1,1,0,0
41498000,41498000,5492000,40.1540302,116.2594857,0.10989718,-0.039276507,-0.1345779,-5.4496985e-07,0.00044743667,0.0,0.0344756,-0.012130976,0.57365036,0.62111586,-0.090029575,0.06088602,0.11497856,-0.10466492,0.09871827,-0.96113086,0.012757906,-0.12540446,49.92359,0.2326224,0.16854738,0.33473027,0.10398683,0.08984279,inf,inf,inf,inf,1,1,1,1,2,0,2,1,2,1,1,0,0
42004000,42004000,5492000,40.1540302,116.2594857,0.14414084,-0.033904605,-0.09882475,-5.4496985e-07,0.00044743667,0.0,-0.23384337,-0.026289215,0.06010494,0.06472514,-0.090029575,0.06088602,0.11497856,-3.4306822,0.028431572,6.7770557,-0.00303447,-0.12540446,49.92359,0.19686925,0.16807714,0.33543137,0.110797964,0.08691448,inf,inf,inf,inf,1,1,1,1,2,0,2,1,2,1,1,0,0
42499000,42499000,5492000,40.1540302,116.2594857,0.14615814,-0.029677387,-0.06521827,-5.4496985e-07,0.00044743667,0.0,-0.1026657,-0.027402513,-0.018795338,0.005231421,-0.090029575,0.06088602,0.11497856,1.1821706,-0.0061108666,7.220351,-0.0035214445,-0.12540446,49.92359,0.16326277,0.16808403,0.33446243,0.12358768,0.08313059,inf,inf,inf,inf,1,1,1,1,2,0,2,1,2,1,1,0,0
43004000,43004000,5492000,40.1540302,116.2594857,0.22390315,-0.022958715,-0.05874402,-5.4496985e-07,0.00044743667,0.0,0.1382548,-0.022359096,-0.04575255,-0.030745896,-0.090029575,0.06088602,0.11497856,2.444674,-0.013272884,-0.46341062,-0.0038219471,-0.12540446,49.92359,0.15678853,0.1683575,0.33490178,0.13156188,0.08150357,inf,inf,inf,inf,1,1,1,1,2,0,2,1,2,1,1,0,0
43501000,43501000,5492000,40.1540302,116.2594857,0.23176585,-0.013405156,-0.0447429,-5.4496985e-07,0.00044743667,0.0,-0.10533581,-0.013019897,0.010543938,0.02556095,-0.090029575,0.06088602,0.11497856,3.2437382,-0.014234548,3.6388056,-0.0040336447,-0.12540446,49.92359,0.1,0.16863759,0.3337166,0.13087238,0.0811017,inf,inf,inf,inf,1,1,1,1,2,0,2,1,2,1,1,1,0
43999000,43999000,5492000,40.1540302,116.2594857,0.26722494,0.00664328,-0.053863723,-5.4496985e-07,0.00044743667,0.0,0.15129045,0.0018955963,0.004221751,0.00079548487,-0.090029575,0.06088602,0.11497856,0.49229524,0.0026264759,-0.014338642,-0.004148755,-0.12540446,49.92359,0.10013414,0.16872185,0.33400002,0.12275863,0.08164177,inf,inf,inf,inf,1,1,1,1,2,0,2,1,2,1,1,1,0
44500000,44500000,5492000,40.1540302,116.2594857,0.30149204,0.007670135,-0.035266973,-5.4496985e-07,0.00044743667,0.0,0.049230188,-0.0019183608,0.011920077,0.023134636,-0.090029575,0.06088602,0.11497856,0.0013676762,-0.0012781342,0.0012135132,-0.004269635,-0.12540446,49.92359,0.10835953,0.16715765,0.33193287,0.11849646,0.08219995,inf,inf,inf,inf,1,1,1,1,2,0,2,1,2,1,1,1,0
45008000,45008000,5492000,40.1540302,116.2594857,0.22909299,0.023651443,-0.028421815,-5.4496985e-07,0.00044743667,0.0,-0.030821864,0.010555187,0.0119971,0.014275531,-0.090029575,0.06088602,0.11497856,1.4302243,0.0007538596,-0.022362504,-0.004309763,-0.12540446,49.92359,0.1,0.16885194,0.33205286,0.11688157,0.0838108,inf,inf,inf,inf,1,1,1,1,2,0,2,1,2,1,1,1,0
45505000,45505000,5492000,40.1540302,116.2594857,0.18138567,0.04429835,-0.033256546,-5.4496985e-07,0.00044743667,0.0,-0.082313165,0.0233137,0.01005362,0.008123164,-0.090029575,0.06088602,0.11497856,2.2944689,-0.0008946365,-0.035604835,-0.0043241,-0.12540446,49.92359,0.1088717,0.1676084,0.33202362,0.114713214,0.08479823,inf,inf,inf,inf,1,1,1,1,2,0,2,1,2,1,1,1,0
45993000,45993000,5492000,40.1540302,116.2594857,0.21068244,0.048342682,-0.010645466,-5.4496985e-07,0.00044743667,0.0,0.017893706,0.020719191,0.016804991,0.028764483,-0.090029575,0.06088602,0.11497856,-3.066726,0.019904524,0.054565255,-0.0043524443,-0.12540446,49.92359,0.102905504,0.17393929,0.332185,0.11846433,0.08717164,inf,inf,inf,inf,1,1,1,1,2,0,2,1,2,1,1,1,0
