timestamp,timestamp_sample,ref_timestamp,ref_lat,ref_lon,x,y,z,delta_xy[0],delta_xy[1],delta_z,vx,vy,vz,z_deriv,delta_vxy[0],delta_vxy[1],delta_vz,ax,ay,az,heading,delta_heading,ref_alt,dist_bottom,eph,epv,evh,evv,vxy_max,vz_max,hagl_min,hagl_max,xy_valid,z_valid,v_xy_valid,v_z_valid,xy_reset_counter,z_reset_counter,vxy_reset_counter,vz_reset_counter,heading_reset_counter,xy_global,z_global,dist_bottom_valid,dist_bottom_sensor_bitfield
724000,724000,0,nan,nan,-8.653395e-20,6.922716e-19,5.2554853e-08,0.0,0.0,0.0,-1.9979006e-17,1.5983205e-16,2.1477968e-05,2.1643673e-05,-2.7755576e-17,2.220446e-16,0.0,1.7347234e-15,-1.3877787e-14,0.004969537,0.12114607,0.12114607,nan,0.10000031,0.70622146,3.5000029,7.071068,0.45001808,inf,inf,inf,inf,0,1,0,1,1,0,1,0,1,0,0,1,2
999000,999000,0,nan,nan,3.9898938e-17,-5.348573e-16,0.004291357,0.0,0.0,0.0,-1.1599926e-17,-1.4154194e-15,0.0018040712,0.0057721133,-2.7755576e-17,2.220446e-16,0.0,-5.20417e-15,2.7755574e-14,0.0049723308,0.12114607,0.12114607,nan,0.11028166,0.8244968,1.4301344,4.3779097,0.45297375,inf,inf,inf,inf,0,1,0,1,1,0,1,0,1,0,0,1,2
1501000,1501000,0,nan,nan,2.4929018e-15,-2.1812264e-14,0.01461199,0.0,0.0,0.0,1.9344362e-14,-1.6310073e-13,0.00446635,0.012612314,-2.7755576e-17,2.220446e-16,0.0,8.4808706e-14,-7.0314127e-13,0.004931457,0.12114607,0.12114607,nan,0.1,0.8084094,0.8895871,1.8626958,0.46936247,inf,inf,inf,inf,0,1,0,1,1,0,1,0,1,0,0,1,2
2000000,2000000,0,nan,nan,6.644122e-14,-5.494399e-13,0.0067051225,0.0,0.0,0.0,1.9843121e-13,-1.6407568e-12,0.005758897,0.002439544,-2.7755576e-17,2.220446e-16,0.0,3.2092382e-13,-2.6506573e-12,0.004817731,0.12114607,0.12114607,nan,0.1,0.555864,0.75972813,1.2980175,0.49933544,inf,inf,inf,inf,0,1,0,1,1,0,1,0,1,0,0,1,2
2501000,2501000,0,nan,nan,1.5799982e-13,-1.3066687e-12,0.0058198883,0.0,0.0,0.0,3.789315e-13,-3.1331342e-12,0.0072865505,0.0020095524,-2.7755576e-17,2.220446e-16,0.0,4.315992e-13,-3.5416114e-12,0.0047683716,0.12114607,0.12114607,nan,0.1,0.6433723,0.717517,1.555318,0.52647036,inf,inf,inf,inf,0,1,0,1,1,0,1,0,1,0,0,1,2
3000000,3000000,0,nan,nan,1.5465942e-13,-1.2823187e-12,0.008584713,0.0,0.0,0.0,3.3709385e-13,-2.7910584e-12,0.009117382,0.0047345725,-2.7755576e-17,2.220446e-16,0.0,1.2420619e-12,-1.0214051e-11,0.004380941,0.12114607,0.12114607,nan,0.1,0.5318067,0.74737453,1.2753824,0.55033505,inf,inf,inf,inf,0,1,0,1,1,0,1,0,1,0,0,1,2
3501000,3501000,0,nan,nan,1.4936697e-13,-1.2375457e-12,0.0066316654,0.0,0.0,0.0,4.0771556e-13,-3.36817e-12,0.008280104,0.000955884,-2.7755576e-17,2.220446e-16,0.0,1.6861511e-12,-1.3863909e-11,0.004170462,0.12114607,0.12114607,nan,0.1,0.616603,0.7666763,1.317941,0.55097437,inf,inf,inf,inf,0,1,0,1,1,0,1,0,1,0,0,1,2
4004000,4004000,0,nan,nan,-1.1317985e-13,9.210085e-13,-0.0017008181,0.0,0.0,0.0,2.3698754e-13,-1.9638314e-12,0.0041982043,-0.008830774,-2.7755576e-17,2.220446e-16,0.0,5.0043303e-12,-4.1100456e-11,0.0026002526,0.12114607,0.12114607,nan,0.1,0.70457983,0.7879668,1.3138565,0.5401416,inf,inf,inf,inf,0,1,0,1,1,0,1,0,1,0,0,1,2
4504000,4499000,0,nan,nan,-2.0436391e-13,1.6709221e-12,-0.0023287372,0.0,0.0,0.0,3.143091e-13,-2.5986461e-12,0.0046004816,-0.004362756,-2.7755576e-17,2.220446e-16,0.0,3.681579e-12,-3.024565e-11,0.0032261014,0.12114607,0.12114607,nan,0.1,0.5445883,0.81136864,1.0169713,0.5264167,inf,inf,inf,inf,0,1,0,1,1,0,1,0,1,0,0,1,2
4999000,4995000,0,nan,nan,-6.295097e-14,-5.102965e-12,0.0053448994,0.0,0.0,0.0,4.360923e-13,-1.4070125e-09,0.008274009,0.0062928717,-2.7755576e-17,2.220446e-16,0.0,2.981742e-12,-2.4488349e-11,0.0035581845,0.12114607,0.12114607,nan,0.1,0.6157132,0.8248685,1.0593535,0.50897944,inf,inf,inf,inf,0,1,0,1,1,0,1,0,1,0,0,1,2
5496000,5492000,0,nan,nan,5.919607e-11,-1.1604499e-05,0.007897801,0.0,0.0,0.0,4.4179463e-10,-6.6764085e-05,0.008680062,0.0054593096,-2.7755576e-17,2.220446e-16,0.0,2.0239344e-09,-0.00021668356,0.0010617077,0.121164724,0.12114607,nan,0.1,0.5045529,0.8101751,0.8551122,0.48191944,inf,inf,inf,inf,0,1,0,1,1,0,1,0,1,0,0,1,2
6001000,5997000,5496000,40.1540302,116.25952090000001,1.0166028e-09,-8.601868e-05,0.011951069,0.0,0.0,0.0,3.903851e-09,-0.00026806621,0.010032255,0.008320604,-2.7755576e-17,2.220446e-16,0.0,8.94584e-09,-0.00045280386,0.00301525,0.12118715,0.12114607,49.932766,0.10094627,0.54030573,0.7796441,0.86220115,0.45261616,inf,inf,inf,inf,0,1,0,1,1,0,1,0,1,1,1,1,0
6492000,6488000,5496000,40.1540302,116.25952090000001,3.970547e-09,-0.00021156165,0.018333305,0.0,0.0,0.0,1.1382408e-08,-0.00051350304,0.011856758,0.011328674,-2.7755576e-17,2.220446e-16,0.0,1.8795017e-08,-0.000650627,0.0034017223,0.1212111,0.12114607,49.932766,0.1,0.45509392,0.78184843,0.6910899,0.43721518,inf,inf,inf,inf,0,1,0,1,1,0,1,0,1,1,1,1,0
6996000,6992000,5496000,40.1540302,116.25952090000001,-3.4950463e-07,-0.00033325772,0.01960696,0.0,0.0,0.0,-8.719313e-06,-0.0007179114,0.011126005,0.006687825,-2.7755576e-17,2.220446e-16,0.0,-9.5177675e-05,-0.0007620726,0.002657374,-0.004168509,-0.12540345,49.932766,0.1,0.50386786,0.7703369,0.64957523,0.4167317,inf,inf,inf,inf,0,1,0,1,1,0,1,0,2,1,1,1,0
7499000,7497000,5496000,40.1540302,116.25952090000001,-1.8552337e-05,-0.0004759625,0.014138626,0.0,0.0,0.0,-6.0167593e-05,-0.0009506061,0.0077915657,-0.002920658,-2.7755576e-17,2.220446e-16,0.0,-8.6071595e-05,-0.0009389702,0.0014230608,-0.0041662203,-0.12540345,49.932766,0.1,0.50818753,0.77265257,0.5379617,0.40235072,inf,inf,inf,inf,0,1,0,1,1,0,1,0,2,1,1,1,0
7994000,7992000,5496000,40.1540302,116.25952090000001,-4.1677093e-05,-0.0006408475,0.016010432,0.0,0.0,0.0,-8.623476e-05,-0.0012131124,0.007914816,0.0005118719,-2.7755576e-17,2.220446e-16,0.0,-6.6417335e-05,-0.0010398037,0.0012489035,-0.0041686706,-0.12540345,49.932766,0.1,0.42745712,0.75863767,0.52290636,0.38152137,inf,inf,inf,inf,0,1,0,1,1,0,1,0,2,1,1,1,0
8493000,8488000,5496000,40.1540302,116.25952090000001,-5.640049e-05,-0.0008362683,0.013884043,0.0,0.0,0.0,-8.542887e-05,-0.0014014598,0.0062258053,-0.0029430767,-2.7755576e-17,2.220446e-16,0.0,-3.4675584e-05,-0.0010178359,0.001734921,-0.004166269,-0.12540345,49.932766,0.1,0.46099755,0.75063664,0.5894604,0.36440092,inf,inf,inf,inf,0,1,0,1,1,0,1,0,2,1,1,1,0
8995000,8988000,5496000,40.1540302,116.25952090000001,-4.931785e-05,-0.00089900277,0.011151476,0.0,0.0,0.0,-5.3339685e-05,-0.001374965,0.0046894383,-0.0048815436,-2.7755576e-17,2.220446e-16,0.0,2.3867874e-06,-0.0009219913,-0.0002356246,-0.0041582845,-0.12540345,49.932766,0.1,0.42327034,0.73162955,0.54417974,0.34452602,inf,inf,inf,inf,0,1,0,1,1,0,1,0,2,1,1,1,0
9501000,9492000,5496000,40.1540302,116.25952090000001,-2.3481534e-05,-0.00081005483,0.0050581885,0.0,0.0,0.0,-5.657003e-06,-0.0011967507,0.0020451942,-0.009363808,-2.7755576e-17,2.220446e-16,0.0,3.481879e-05,-0.00079293724,0.0005416572,-0.0041467655,-0.12540345,49.932766,0.10060627,0.46383944,0.7314276,0.5187394,0.33131802,inf,inf,inf,inf,0,1,0,1,1,0,1,0,2,1,1,1,0
10001000,9993000,5496000,40.1540302,116.25952090000001,6.451772e-06,-0.0007123697,0.004167063,0.0,0.0,0.0,3.599446e-05,-0.0010826223,0.0015489797,-0.00621272,-2.7755576e-17,2.220446e-16,0.0,5.467372e-05,-0.00075784134,-9.164214e-05,-0.004134936,-0.12540345,49.932766,0.10182934,0.4035575,0.7164518,0.40580818,0.31365788,inf,inf,inf,inf,0,1,0,1,1,0,1,0,2,1,1,1,0
10501000,10496000,5496000,40.1540302,116.25952090000001,-0.014700611,0.012013929,0.028039815,-6.10396e-08,0.00044462376,0.0,-0.031757444,0.022347797,0.04816065,0.02681145,-0.020028794,0.030892977,0.08773366,-0.0010198723,-0.0036568663,0.00058952713,-0.0041473843,-0.12540345,49.932766,0.1,0.25875172,0.62255514,0.1789038,0.15850344,inf,inf,inf,inf,1,1,1,1,2,0,2,1,2,1,1,1,0
10999000,10992000,5496000,40.1540302,116.25952090000001,-0.0025953634,0.008141949,0.035927918,-6.10396e-08,0.00044462376,0.0,0.0068247705,0.005358392,0.037316956,0.021103298,-0.020028794,0.030892977,0.08773366,0.02145544,-0.008693387,-0.004616256,-0.0042904913,-0.12540345,49.932766,0.1,0.21122712,0.54932064,0.16766442,0.12862721,inf,inf,inf,inf,1,1,1,1,2,0,2,1,2,1,1,1,0
11501000,11497000,5496000,40.1540302,116.25952090000001,-0.00075715233,0.001429017,0.031571545,-6.10396e-08,0.00044462376,0.0,0.0021913282,-0.006688429,0.027785245,-0.0025929227,-0.020028794,0.030892977,0.08773366,0.0030903171,-0.01454375,-0.006257556,-0.0045567392,-0.12540345,49.932766,0.1,0.19197264,0.50570476,0.1742479,0.115467384,inf,inf,inf,inf,1,1,1,1,2,0,2,1,2,1,1,1,0
11997000,11993000,5496000,40.1540302,116.25952090000001,0.008057329,-0.009768223,-0.05214464,-6.10396e-08,0.00044462376,0.0,0.017788677,-0.021492261,-0.020445883,-0.100530885,-0.020028794,0.030892977,0.08773366,0.018994525,-0.020609247,-0.00917986,-0.0050356337,-0.12540345,49.932766,0.10367468,0.18236682,0.46880266,0.17231843,0.10905003,inf,inf,inf,inf,1,1,1,1,2,0,2,1,2,1,1,1,0
12494000,12487000,5496000,40.1540302,116.25952090000001,0.024902632,-0.017363844,-0.045617215,-6.10396e-08,0.00044462376,0.0,0.037065838,-0.025045365,-0.018073179,-0.048940778,-0.020028794,0.030892977,0.08773366,0.0267722,-0.013307683,-0.011043622,-0.005510537,-0.12540345,49.932766,0.106182724,0.17619175,0.44378033,0.16671446,0.106009334,inf,inf,inf,inf,1,1,1,1,2,0,2,1,2,1,1,1,0
13003000,12999000,5496000,40.1540302,116.25952090000001,0.037942257,-0.012903843,-0.073947504,-6.10396e-08,0.00044462376,0.0,0.043355122,-0.014097457,-0.033781253,-0.063375816,-0.020028794,0.030892977,0.08773366,0.020344099,-0.0051244157,-0.008029863,-0.0054781423,-0.12540345,49.932766,0.1,0.17341027,0.42172763,0.16284114,0.10486279,inf,inf,inf,inf,1,1,1,1,2,0,2,1,2,1,1,1,0
13504000,13499000,5496000,40.1540302,116.25952090000001,0.06184842,-0.010704925,-0.10542623,-6.10396e-08,0.00044462376,0.0,0.06602204,-0.010423205,-0.0479425,-0.07212161,-0.020028794,0.030892977,0.08773366,0.03547295,-0.004029119,-0.007447786,-0.0052870587,-0.12540345,49.932766,0.10757577,0.17181742,0.4072515,0.15646176,0.1046397,inf,inf,inf,inf,1,1,1,1,2,0,2,1,2,1,1,1,0
14004000,13999000,5496000,40.1540302,116.25952090000001,0.06963358,-0.0018148175,-0.13401383,-6.10396e-08,0.00044462376,0.0,0.06055589,0.0011826139,-0.06017034,-0.07468334,-0.020028794,0.030892977,0.08773366,0.020848462,0.0028271521,-0.012140101,-0.0048415535,-0.12540345,49.932766,0.10361504,0.17152818,0.39383352,0.15237066,0.10456057,inf,inf,inf,inf,1,1,1,1,2,0,2,1,2,1,1,1,0
14501000,14497000,5496000,40.1540302,116.25952090000001,0.063418634,-0.019231342,-0.13388503,-6.10396e-08,0.00044462376,0.0,0.043080334,-0.018210255,-0.057138517,-0.041681934,-0.020028794,0.030892977,0.08773366,0.009009106,-0.0075062723,-0.005108304,-0.0049428404,-0.12540345,49.932766,0.11876076,0.17073447,0.38262302,0.14976256,0.10399364,inf,inf,inf,inf,1,1,1,1,2,0,2,1,2,1,1,1,0
15001000,14997000,5496000,40.1540302,116.25952090000001,0.019347003,-0.024134707,-0.13104114,-6.10396e-08,0.00044462376,0.0,-0.010641815,-0.019960953,-0.05311107,-0.01965708,-0.020028794,0.030892977,0.08773366,-0.019598005,-0.0095760105,-0.010473653,-0.0049428577,-0.12540345,49.932766,0.13301492,0.16999088,0.37560767,0.14596651,0.10328798,inf,inf,inf,inf,1,1,1,1,2,0,2,1,2,1,1,1,0
15496000,15492000,5496000,40.1540302,116.25952090000001,-0.004416659,-0.0395566,-0.08908885,-6.10396e-08,0.00044462376,0.0,-0.028347796,-0.033430576,-0.030728566,0.033537228,-0.020028794,0.030892977,0.08773366,-0.020675052,-0.014187495,-0.0046547498,-0.005247956,-0.12540345,49.932766,0.113515146,0.17825896,0.3708764,0.1523511,0.10484185,inf,inf,inf,inf,1,1,1,1,2,0,2,1,2,1,1,1,0
15995000,15993000,5496000,40.1540302,116.25952090000001,-0.013306222,-0.036819123,-0.0601588,-6.10396e-08,0.00044462376,0.0,-0.03238021,-0.022303866,-0.015975531,0.05483901,-0.020028794,0.030892977,0.08773366,-0.020944146,-0.0014682843,1.5832482e-05,-0.0055194283,-0.12540345,49.932766,0.124872044,0.17733131,0.36634243,0.14863414,0.10352794,inf,inf,inf,inf,1,1,1,1,2,0,2,1,2,1,1,1,0
16501000,16497000,5496000,40.1540302,116.25952090000001,-0.026530467,-0.021030175,0.027806096,-6.10396e-08,0.00044462376,0.0,-0.042625844,-0.0060914513,0.025191076,0.13055505,-0.020028794,0.030892977,0.08773366,-0.025144223,0.0012065889,0.007982365,-0.0052840086,-0.12540345,49.932766,0.12631324,0.16799892,0.35804343,0.13604058,0.09940507,inf,inf,inf,inf,1,1,1,1,2,0,2,1,2,1,1,1,0
16996000,16990000,5496000,40.1540302,116.25952090000001,-0.033114333,-0.032564633,0.07396679,-6.10396e-08,0.00044462376,0.0,-0.0421617,-0.019518644,0.04145723,0.11636381,-0.020028794,0.030892977,0.08773366,-0.01933247,-0.006039933,0.0074267387,-0.005315045,-0.12540345,49.932766,0.1,0.17614782,0.3579456,0.14235684,0.100446366,inf,inf,inf,inf,1,1,1,1,2,0,2,1,2,1,1,1,0
17501000,17497000,5496000,40.1540302,116.25952090000001,-0.053559996,-0.01903226,0.08037324,-6.10396e-08,0.00044462376,0.0,-0.058507554,-0.0007462627,0.040943325,0.071264766,-0.020028794,0.030892977,0.08773366,-0.028697558,0.0076618493,0.007568858,-0.0052885646,-0.12540345,49.932766,0.1,0.1757165,0.35387555,0.13939516,0.098783515,inf,inf,inf,inf,1,1,1,1,2,0,2,1,2,1,1,1,0
18001000,17997000,5496000,40.1540302,116.25952090000001,-0.07123461,-0.013153789,0.052825373,-6.10396e-08,0.00044462376,0.0,-0.06646108,0.0009715364,0.025904754,0.010194559,-0.020028794,0.030892977,0.08773366,-0.02699202,0.0016290827,0.0037923455,-0.0050474377,-0.12540345,49.932766,0.1,0.1743687,0.35156286,0.1354622,0.09705215,inf,inf,inf,inf,1,1,1,1,2,0,2,1,2,1,1,1,0
18506000,18497000,5496000,40.1540302,116.25952090000001,-0.077255376,-0.013814331,0.027611867,-6.10396e-08,0.00044462376,0.0,-0.063511245,0.00056575285,0.015038764,-0.013438868,-0.020028794,0.030892977,0.08773366,-0.02295603,0.0043439586,0.0033974645,-0.004994966,-0.12540345,49.932766,0.10161416,0.17469151,0.34895164,0.13288549,0.09564494,inf,inf,inf,inf,1,1,1,1,2,0,2,1,2,1,1,1,0
18998000,18994000,5496000,40.1540302,116.25952090000001,-0.05869685,-0.0069272756,0.06368454,-6.10396e-08,0.00044462376,0.0,-0.038490433,0.0049105813,0.035503007,0.038981,-0.020028794,0.030892977,0.08773366,-0.00927736,0.0029747768,-0.11103663,-0.004760161,-0.12540345,49.932766,0.1,0.17421672,0.34787846,0.13014215,0.09433684,inf,inf,inf,inf,1,1,1,1,2,0,2,1,2,1,1,1,0
19497000,19493000,5496000,40.1540302,116.25952090000001,-0.03120378,-0.0077657867,0.04054774,-6.10396e-08,0.00044462376,0.0,-0.012911957,0.0034294396,-0.0015595069,-0.02678743,-0.020028794,0.030892977,0.08773366,-0.0031692775,0.0044824164,-1.1808294,-0.00451185,-0.12540345,49.932766,0.1,0.17369217,0.3453269,0.12844412,0.09307247,inf,inf,inf,inf,1,1,1,1,2,0,2,1,2,1,1,1,0
20001000,19996000,5496000,40.1540302,116.25952090000001,-0.0063959644,-0.02167428,0.043110322,-6.10396e-08,0.00044462376,0.0,0.008817099,-0.01364695,-0.028326886,-0.044805005,-0.020028794,0.030892977,0.08773366,0.03062232,-0.0046676686,-4.2877474,-0.0040858286,-0.12540345,49.932766,0.101728916,0.17210177,0.34414613,0.16513415,0.09190568,inf,inf,inf,inf,1,1,1,1,2,0,2,1,2,1,1,1,0
20493000,20489000,5496000,40.1540302,116.25952090000001,-0.0184408,0.009597192,0.044399448,-6.10396e-08,0.00044462376,0.0,-0.052458595,0.04030411,-0.09023404,-0.09707583,-0.020028794,0.030892977,0.08773366,-0.1430694,-0.028409649,-1.4610662,-0.0019648976,-0.12540345,49.932766,0.12535924,0.17216715,0.34377483,0.18150719,0.091212414,inf,inf,inf,inf,1,1,1,1,2,0,2,1,2,1,1,1,0
20997000,20993000,5496000,40.1540302,116.25952090000001,-0.060407862,0.040872186,-0.26473355,-6.10396e-08,0.00044462376,0.0,-0.061571542,0.018297845,-0.47071475,-0.5334711,-0.020028794,0.030892977,0.08773366,0.0519845,-0.085361525,0.73984116,0.0027437822,-0.12540345,49.932766,0.43449223,0.17289683,0.34234834,0.17163514,0.09068138,inf,inf,inf,inf,1,1,1,1,2,0,2,1,2,1,1,1,0
21495000,21491000,5496000,40.1540302,116.25952090000001,-0.04695259,-0.022653276,-0.44491544,-6.10396e-08,0.00044462376,0.0,-0.016444247,-0.05403422,-0.31113973,-0.34425062,-0.020028794,0.030892977,0.08773366,-0.017624268,0.08109483,0.1942079,0.002417025,-0.12540345,49.932766,0.61467415,0.17161275,0.3416398,0.15553527,0.09003015,inf,inf,inf,inf,1,1,1,1,2,0,2,1,2,1,1,1,0
21996000,21992000,5496000,40.1540302,116.25952090000001,-0.030680528,-0.085678734,-0.60616004,-6.10396e-08,0.00044462376,0.0,-0.016258895,-0.025087077,-0.20974022,-0.25449774,-0.020028794,0.030892977,0.08773366,-0.0729966,0.14739263,0.2811797,0.0010003007,-0.12540345,49.932766,0.7759187,0.17172709,0.3404515,0.1427412,0.08972794,inf,inf,inf,inf,1,1,1,1,2,0,2,1,2,1,1,1,0
22491000,22489000,5496000,40.1540302,116.25952090000001,-0.059274428,-0.11080324,-0.7097218,-6.10396e-08,0.00044462376,0.0,-0.03827295,0.02966167,-0.1311882,-0.17432058,-0.020028794,0.030892977,0.08773366,0.014918323,0.14720745,0.12882333,0.00041416142,-0.12540345,49.932766,0.8794805,0.17014584,0.33996817,0.1312193,0.08927458,inf,inf,inf,inf,1,1,1,1,2,0,2,1,2,1,1,1,0
23004000,22996000,5496000,40.1540302,116.25952090000001,-0.09022135,-0.05703411,-0.76088953,-6.10396e-08,0.00044462376,0.0,-0.028055843,0.082056664,-0.10538153,-0.12507366,-0.020028794,0.030892977,0.08773366,0.053976122,-0.02313347,0.0052107493,7.623399e-05,-0.12540345,49.932766,0.9306482,0.1694179,0.33848804,0.12270825,0.08897763,inf,inf,inf,inf,1,1,1,1,2,0,2,1,2,1,1,1,0
23500000,23496000,5496000,40.1540302,116.25952090000001,-0.1258971,-0.017877052,-0.7822778,-6.10396e-08,0.00044462376,0.0,-0.0112271365,0.054342583,-0.10836532,-0.096595496,-0.020028794,0.030892977,0.08773366,0.09360898,-0.07191053,-0.056988556,-0.00019832772,-0.12540345,49.932766,0.9520365,0.1692499,0.33759832,0.11648987,0.08891768,inf,inf,inf,inf,1,1,1,1,2,0,2,1,2,1,1,1,0
23997000,23993000,5496000,40.1540302,116.25952090000001,-0.13455759,0.0065732333,-0.8209147,-6.10396e-08,0.00044462376,0.0,0.024068356,0.027627816,-0.101985715,-0.08627844,-0.020028794,0.030892977,0.08773366,0.07284422,-0.070274435,0.08830986,-0.0005896082,-0.12540345,49.932766,0.99067336,0.16817719,0.33784202,0.11169626,0.08881064,inf,inf,inf,inf,1,1,1,1,2,0,2,1,2,1,1,1,0
24497000,24492000,5496000,40.1540302,116.25952090000001,-0.10150671,0.008062077,-0.7608998,-6.10396e-08,0.00044462376,0.0,0.026471168,0.006751427,0.032448437,0.075228676,-0.020028794,0.030892977,0.08773366,-0.08077199,-0.0065962714,-0.27034336,-0.001008918,-0.12540345,49.932766,0.93065846,0.17480387,0.3386434,0.11353374,0.09040373,inf,inf,inf,inf,1,1,1,1,2,0,2,1,2,1,1,0,0
25000000,24994000,5496000,40.1540302,116.25952090000001,-0.07671932,0.032145344,-0.75662714,-6.10396e-08,0.00044462376,0.0,-0.0029325944,0.008999671,-0.0007872156,0.02469545,-0.020028794,0.030892977,0.08773366,-0.09030988,-0.055329654,-0.06781742,-0.0013096385,-0.12540345,49.932766,0.9263858,0.1734847,0.33744162,0.111740395,0.090214446,inf,inf,inf,inf,1,1,1,1,2,0,2,1,2,1,1,0,0
25497000,25493000,5496000,40.1540302,116.25952090000001,-0.0868022,0.03888073,-0.7248245,-6.10396e-08,0.00044462376,0.0,-0.037229322,-0.01805576,-0.046670962,0.0002447205,-0.020028794,0.030892977,0.08773366,-0.033774246,-0.052176047,-0.12206565,-0.0015178586,-0.12540345,49.932766,0.89458317,0.17157814,0.3373648,0.11101123,0.08996409,inf,inf,inf,inf,1,1,1,1,2,0,2,1,2,1,1,0,0
25996000,25992000,5496000,40.1540302,116.25952090000001,-0.103109606,0.0073096394,-0.7690834,-6.10396e-08,0.00044462376,0.0,-0.037327886,-0.032371216,-0.03388409,-0.025429212,-0.020028794,0.030892977,0.08773366,-0.0019945928,0.031671803,0.119619064,-0.0018482911,-0.12540345,49.932766,0.93884206,0.17005347,0.3373412,0.11159603,0.089754395,inf,inf,inf,inf,1,1,1,1,2,0,2,1,2,1,1,0,0
26504000,26499000,5496000,40.1540302,116.25952090000001,-0.14196603,-0.012836694,-0.7819346,-6.10396e-08,0.00044462376,0.0,-0.040121432,-0.015590325,0.0018504559,0.0050134785,-0.020028794,0.030892977,0.08773366,0.061390698,0.04266431,-0.091853954,-0.0021624456,-0.12540345,49.932766,0.9516933,0.17077973,0.337251,0.111828886,0.09000448,inf,inf,inf,inf,1,1,1,1,2,0,2,1,2,1,1,0,0
26996000,26992000,5496000,40.1540302,116.25952090000001,-0.17057659,-0.027851945,-0.7758352,-6.10396e-08,0.00044462376,0.0,-0.0017435206,0.0053570336,-0.032381807,-0.02185365,-0.020028794,0.030892977,0.08773366,0.09567759,0.049861737,0.03559794,-0.0019062307,-0.12540345,49.932766,0.9455939,0.16962999,0.33726102,0.11248382,0.08980726,inf,inf,inf,inf,1,1,1,1,2,0,2,1,2,1,1,0,0
27501000,27493000,5496000,40.1540302,116.25952090000001,-0.16085662,-0.049198646,-0.785679,-6.10396e-08,0.00044462376,0.0,0.022189608,0.005996174,0.017473567,0.022192376,-0.020028794,0.030892977,0.08773366,-0.014288434,0.013333735,0.12787616,-0.0012914436,-0.12540345,49.932766,0.95543766,0.16950113,0.33628854,0.11365445,0.089729756,inf,inf,inf,inf,1,1,1,1,2,0,2,1,2,1,1,0,0
28001000,27997000,5496000,40.1540302,116.25952090000001,-0.15976782,-0.072594926,-0.7764888,-6.10396e-08,0.00044462376,0.0,0.010573747,-0.0042913333,0.013766288,0.013479185,-0.020028794,0.030892977,0.08773366,0.0008761978,0.034456216,0.012935036,-0.0011179921,-0.12540345,49.932766,0.94624746,0.17001122,0.3358497,0.113829635,0.08982806,inf,inf,inf,inf,1,1,1,1,2,0,2,1,2,1,1,0,0
28491000,28487000,5496000,40.1540302,116.25952090000001,-0.16441077,-0.058645885,-0.80128175,-6.10396e-08,0.00044462376,0.0,0.0042037675,0.008554208,0.011938231,-0.011047971,-0.020028794,0.030892977,0.08773366,0.012202604,-0.0026853248,0.010358169,-0.00082619424,-0.12540345,49.932766,0.9710404,0.16886598,0.33592042,0.112271994,0.08959305,inf,inf,inf,inf,1,1,1,1,2,0,2,1,2,1,1,0,0
29001000,28997000,5496000,40.1540302,116.25952090000001,-0.15394326,-0.03682234,-0.8352338,-6.10396e-08,0.00044462376,0.0,0.012648949,0.012660062,0.009970205,-0.030663589,-0.020028794,0.030892977,0.08773366,-0.0026243015,-0.0090143625,0.03253482,-0.00056650146,-0.12540345,49.932766,1.0049925,0.16910462,0.33543482,0.11248508,0.08961457,inf,inf,inf,inf,1,1,1,1,2,0,2,1,2,1,1,0,0
29504000,29497000,5496000,40.1540302,116.25952090000001,-0.14048302,-0.00072818465,-0.8078249,-6.10396e-08,0.00044462376,0.0,0.009838859,0.02055656,0.012945323,0.008258368,-0.020028794,0.030892977,0.08773366,-0.00953205,-0.036225982,-0.036452893,-0.00010160774,-0.12540345,49.932766,0.9775836,0.16873337,0.33602583,0.11187031,0.089581855,inf,inf,inf,inf,1,1,1,1,2,0,2,1,2,1,1,0,0
29997000,29990000,5496000,40.1540302,116.25952090000001,-0.12423917,0.016047174,-0.80659217,-6.10396e-08,0.00044462376,0.0,0.009714813,0.005808143,0.0064805597,-0.000647341,-0.020028794,0.030892977,0.08773366,-0.021348279,-0.022187106,0.01765564,0.0004386583,-0.12540345,49.932766,0.97635084,0.16835749,0.33509114,0.111498885,0.08942545,inf,inf,inf,inf,1,1,1,1,2,0,2,1,2,1,1,0,0
30500000,30497000,5496000,40.1540302,116.25952090000001,-0.13555819,0.0021238686,-0.7721874,-6.10396e-08,0.00044462376,0.0,-0.0027278522,-0.0045718504,0.010952592,0.031565007,-0.020028794,0.030892977,0.08773366,0.012673702,0.018591756,-0.039927658,0.0007962859,-0.12540345,49.932766,0.9419461,0.16729152,0.33524275,0.11115338,0.08920622,inf,inf,inf,inf,1,1,1,1,2,0,2,1,2,1,1,0,0
30996000,30992000,5496000,40.1540302,116.25952090000001,-0.12329954,0.017016623,-0.7555661,-6.10396e-08,0.00044462376,0.0,0.0038298646,0.0069755292,0.007184355,0.029387549,-0.020028794,0.030892977,0.08773366,-0.0150741385,-0.012280464,-0.14233774,0.0012153221,-0.12540345,49.932766,0.9253248,0.16617347,0.33394906,0.109537415,0.08886795,inf,inf,inf,inf,1,1,1,1,2,0,2,1,2,1,1,0,0
31492000,31488000,5496000,40.1540302,116.25952090000001,-0.1349199,0.043821942,-0.7574982,-6.10396e-08,0.00044462376,0.0,-0.0072582113,0.011022346,-0.026289048,-0.008059388,-0.020028794,0.030892977,0.08773366,0.01332834,-0.030097943,0.010050833,0.0016713726,-0.12540345,49.932766,0.9272569,0.17185095,0.33419773,0.11378994,0.090153314,inf,inf,inf,inf,1,1,1,1,2,0,2,1,2,1,1,0,0
31996000,31993000,5496000,40.1540302,116.25952090000001,-0.14337377,0.06743723,-0.78095365,-6.10396e-08,0.00044462376,0.0,-0.0047318935,0.00743952,-0.02379633,-0.02378643,-0.020028794,0.030892977,0.08773366,0.020100653,-0.039759833,0.026355496,0.0022908018,-0.12540345,49.932766,0.9507123,0.17112036,0.33462295,0.11259911,0.09005385,inf,inf,inf,inf,1,1,1,1,2,0,2,1,2,1,1,0,0
32499000,32496000,5496000,40.1540302,116.25952090000001,-0.11746075,0.05934915,-0.79475576,-6.10396e-08,0.00044462376,0.0,0.0125516495,-0.009730788,-0.012243407,-0.011837232,-0.020028794,0.030892977,0.08773366,-0.016581107,-0.0045895036,-0.009127892,0.0028873128,-0.12540345,49.932766,0.96451443,0.17359455,0.33595735,0.11144519,0.090742014,inf,inf,inf,inf,1,1,1,1,2,0,2,1,2,1,1,0,0
32997000,32991000,5496000,40.1540302,116.25952090000001,-0.095194355,0.045854364,-0.78602844,-6.10396e-08,0.00044462376,0.0,0.0068764947,-0.011446202,-0.009599017,0.0021237188,-0.020028794,0.030892977,0.08773366,-0.023136731,0.004255921,-0.020456191,0.0034210866,-0.12540345,49.932766,0.9557871,0.17317612,0.3356451,0.11004604,0.090683796,inf,inf,inf,inf,1,1,1,1,2,0,2,1,2,1,1,0,0
33501000,33497000,5496000,40.1540302,116.25952090000001,-0.098526135,0.021079848,-0.7675923,-6.10396e-08,0.00044462376,0.0,-0.003007881,-0.018477228,-0.0061817123,0.01809654,-0.020028794,0.030892977,0.08773366,0.0036338891,0.024681313,-0.026080756,0.003942256,-0.12540345,49.932766,0.937351,0.17195794,0.33629936,0.108632,0.09051665,inf,inf,inf,inf,1,1,1,1,2,0,2,1,2,1,1,0,0
33996000,33992000,5496000,40.1540302,116.25952090000001,-0.0832027,0.01159321,-0.81127787,-6.10396e-08,0.00044462376,0.0,0.005500383,-0.0060535977,-0.012875867,-0.03130888,-0.020028794,0.030892977,0.08773366,-0.01343617,0.011408063,0.054054793,0.0043361518,-0.12540345,49.932766,0.98103654,0.17098361,0.33692905,0.10828806,0.09037425,inf,inf,inf,inf,1,1,1,1,2,0,2,1,2,1,1,0,0
34499000,34492000,5496000,40.1540302,116.25952090000001,-0.07668755,-0.0019780945,-0.8748816,-6.10396e-08,0.00044462376,0.0,-0.0019468087,-0.005108737,-0.010449941,-0.0651848,-0.020028794,0.030892977,0.08773366,-0.0119563835,0.018678807,0.054048374,0.004646575,-0.12540345,49.932766,1.0446403,0.16965045,0.33550268,0.10805888,0.08996566,inf,inf,inf,inf,1,1,1,1,2,0,2,1,2,1,1,0,0
34992000,34988000,5496000,40.1540302,116.25952090000001,-0.08296573,0.006563591,-0.8770691,-6.10396e-08,0.00044462376,0.0,-0.004042399,0.006041208,-0.00019142617,-0.026727375,-0.020028794,0.030892977,0.08773366,0.0017765856,-0.009563008,-0.019446945,0.0047585224,-0.12540345,49.932766,1.0468278,0.1693492,0.3361646,0.10724713,0.089949444,inf,inf,inf,inf,1,1,1,1,2,0,2,1,2,1,1,0,0
35496000,35492000,5496000,40.1540302,116.25952090000001,-0.07586404,0.0050934902,-0.86557925,-6.10396e-08,0.00044462376,0.0,-2.5900263e-06,0.002011419,0.0002470943,-0.005569,-0.020028794,0.030892977,0.08773366,-0.013571639,-0.0038065524,-0.004557272,0.004693528,-0.12540345,49.932766,1.0353379,0.16879901,0.3352199,0.10671287,0.08975569,inf,inf,inf,inf,1,1,1,1,2,0,2,1,2,1,1,0,0
36001000,35993000,5496000,40.1540302,116.25952090000001,-0.078185715,-0.00576379,-0.86567426,-6.10396e-08,0.00044462376,0.0,-0.005025645,0.00014031821,-0.0034289449,-0.008725445,-0.020028794,0.030892977,0.08773366,-0.006808815,0.0075761285,0.02030283,0.0044570914,-0.12540345,49.932766,1.0354329,0.16846187,0.33589616,0.10679279,0.08974811,inf,inf,inf,inf,1,1,1,1,2,0,2,1,2,1,1,0,0
36495000,36492000,5496000,40.1540302,116.25952090000001,-0.0879077,-0.032731466,-0.84607893,-6.10396e-08,0.00044462376,0.0,-0.010420288,-0.010865653,0.002811629,0.016545808,-0.020028794,0.030892977,0.08773366,0.003936795,0.029075999,-0.0354154,0.0040175486,-0.12540345,49.932766,1.0158377,0.1683188,0.3350354,0.10653997,0.089654066,inf,inf,inf,inf,1,1,1,1,2,0,2,1,2,1,1,0,0
37001000,36997000,5496000,40.1540302,116.25952090000001,-0.087772496,-0.058439344,-0.8582137,-6.10396e-08,0.00044462376,0.0,-0.0033287941,-0.0069792443,-0.004720623,-0.008238177,-0.020028794,0.030892977,0.08773366,-0.004037057,0.036231574,0.021849757,0.0034092218,-0.12540345,49.932766,1.0279725,0.16870508,0.33616018,0.106438994,0.08983966,inf,inf,inf,inf,1,1,1,1,2,0,2,1,2,1,1,0,0
37497000,37493000,5496000,40.1540302,116.25952090000001,-0.079703115,-0.0711492,-0.86215955,-6.10396e-08,0.00044462376,0.0,-0.00083639054,-0.003131814,0.0027823017,0.0017087993,-0.020028794,0.030892977,0.08773366,-0.01267419,0.03029287,-0.009008682,0.0028105646,-0.12540345,49.932766,1.0319183,0.16811001,0.33670402,0.10539264,0.08975242,inf,inf,inf,inf,1,1,1,1,2,0,2,1,2,1,1,0,0
38001000,37997000,5496000,40.1540302,116.25952090000001,-0.09864407,-0.05833194,-0.85514337,-6.10396e-08,0.00044462376,0.0,-0.016759858,0.032270476,0.24099812,0.23158714,-0.020028794,0.030892977,0.08773366,0.017117113,0.023000026,1.8847554,0.0537154,-0.12540345,49.932766,1.0249021,0.16763051,0.33573657,0.10501561,0.08957824,inf,inf,inf,inf,1,1,1,1,2,0,2,1,2,1,1,0,0
38501000,38497000,5496000,40.1540302,116.25952090000001,-0.11983,-0.036343936,-0.479062,-6.10396e-08,0.00044462376,0.0,0.0026444562,-0.016556298,0.7367927,0.7784904,-0.020028794,0.030892977,0.08773366,0.08018,-0.0060894717,-0.74333227,0.04651186,-0.12540345,49.932766,0.6488207,0.16703665,0.33482414,0.10214586,0.08941468,inf,inf,inf,inf,1,1,1,1,2,0,2,1,2,1,1,0,0
38995000,38989000,5496000,40.1540302,116.25952090000001,-0.09742458,-0.036706954,-0.22908323,-6.10396e-08,0.00044462376,0.0,0.026340075,-0.009271342,0.6231278,0.60804445,-0.020028794,0.030892977,0.08773366,-0.007909615,0.009285002,0.4087381,-0.0077798865,-0.12540345,49.932766,0.39884192,0.1665891,0.33548564,0.1036403,0.089399025,inf,inf,inf,inf,1,1,1,1,2,0,2,1,2,1,1,0,0
39488000,39484000,5496000,40.1540302,116.25952090000001,-0.0809972,-0.05171624,-0.11242711,-6.10396e-08,0.00044462376,0.0,0.0038036404,-0.042538844,0.25135127,0.2062209,-0.020028794,0.030892977,0.08773366,-0.004937009,0.01153768,6.3060026,-0.009743149,-0.12540345,49.932766,0.2821858,0.165427,0.33415657,0.10861539,0.087796465,inf,inf,inf,inf,1,1,1,1,2,0,2,1,2,1,1,0,0
39992000,39988000,5496000,40.1540302,116.25952090000001,-0.08282576,-0.05864107,-0.09933366,-6.10396e-08,0.00044462376,0.0,0.0015884168,-0.04307015,0.025873447,0.013739118,-0.020028794,0.030892977,0.08773366,-0.00058598886,-0.011286523,-1.0442466,-0.00857774,-0.12540345,49.932766,0.26909235,0.16533133,0.33477208,0.11828221,0.08311149,inf,inf,inf,inf,1,1,1,1,2,0,2,1,2,1,1,0,0
40497000,40493000,5496000,40.1540302,116.25952090000001,-0.081162296,-0.048587114,-0.051113315,-6.10396e-08,0.00044462376,0.0,0.0038945468,-0.029808916,0.033870786,0.072512135,-0.020028794,0.030892977,0.08773366,0.0015516307,-0.0034854417,-0.7998067,-0.0085372375,-0.12540345,49.932766,0.22087201,0.16628543,0.3341865,0.12891954,0.08081963,inf,inf,inf,inf,1,1,1,1,2,0,2,1,2,1,1,0,0
40999000,40995000,5496000,40.1540302,116.25952090000001,-0.08464116,-0.042028837,-0.039589424,-6.10396e-08,0.00044462376,0.0,-5.3074185e-05,-0.022411155,0.00285411,0.025587047,-0.020028794,0.030892977,0.08773366,-0.0014148398,0.0004524431,-0.03698002,-0.008565315,-0.12540345,49.932766,0.1,0.16661459,0.33305353,0.12544602,0.080043,inf,inf,inf,inf,1,1,1,1,2,0,2,1,2,1,1,1,0
41499000,41493000,5496000,40.1540302,116.25952090000001,-0.08193559,-0.034133777,-0.027956672,-6.10396e-08,0.00044462376,0.0,0.0035835681,-0.015167246,0.00067179184,0.02159408,-0.020028794,0.030892977,0.08773366,0.0011524373,0.0011932775,-0.008508562,-0.008597229,-0.12540345,49.932766,0.1,0.16606656,0.3314991,0.1217651,0.0801608,inf,inf,inf,inf,1,1,1,1,2,0,2,1,2,1,1,1,0
41996000,41992000,5496000,40.1540302,116.25952090000001,-0.069176875,-0.01303416,-0.049192756,-6.10396e-08,0.00044462376,0.0,0.01499275,0.0029646072,-0.010345539,-0.013026705,-0.020028794,0.030892977,0.08773366,0.005918905,0.0074099996,-0.0052556396,-0.008577461,-0.12540345,49.932766,0.1,0.1649343,0.33106852,0.118856914,0.080833,inf,inf,inf,inf,1,1,1,1,2,0,2,1,2,1,1,1,0
42496000,42489000,5496000,40.1540302,116.25952090000001,-0.066958,-0.0076559233,-0.039878894,-6.10396e-08,0.00044462376,0.0,0.013822251,0.0017852851,-0.0058605005,0.0048210267,-0.020028794,0.030892977,0.08773366,0.0034064094,0.0021910318,-0.0018961726,-0.008539844,-0.12540345,49.932766,0.10613237,0.17366791,0.33196342,0.12229047,0.08364048,inf,inf,inf,inf,1,1,1,1,2,0,2,1,2,1,1,1,0
42992000,42988000,5496000,40.1540302,116.25952090000001,-0.08035579,0.0033280668,-0.026333518,-6.10396e-08,0.00044462376,0.0,0.00042256998,0.009566279,-0.0022991898,0.014225121,-0.020028794,0.030892977,0.08773366,-0.0014731186,0.0058240625,-0.0006904205,-0.008527348,-0.12540345,49.932766,0.1,0.17038786,0.33071992,0.11807704,0.084270135,inf,inf,inf,inf,1,1,1,1,2,0,2,1,2,1,1,1,0
43500000,43496000,5496000,40.1540302,116.25952090000001,-0.11185788,0.026450442,-0.035916876,-6.10396e-08,0.00044462376,0.0,-0.02377696,0.024808249,-0.008210555,-0.00062154856,-0.020028794,0.030892977,0.08773366,-0.008903323,0.00955274,-0.0060228626,-0.008472505,-0.12540345,49.932766,0.108555555,0.17293797,0.33119285,0.11700098,0.086157165,inf,inf,inf,inf,1,1,1,1,2,0,2,1,2,1,1,1,0
