timestamp,timestamp_sample,ref_timestamp,ref_lat,ref_lon,x,y,z,delta_xy[0],delta_xy[1],delta_z,vx,vy,vz,z_deriv,delta_vxy[0],delta_vxy[1],delta_vz,ax,ay,az,heading,delta_heading,ref_alt,dist_bottom,eph,epv,evh,evv,vxy_max,vz_max,hagl_min,hagl_max,xy_valid,z_valid,v_xy_valid,v_z_valid,xy_reset_counter,z_reset_counter,vxy_reset_counter,vz_reset_counter,heading_reset_counter,xy_global,z_global,dist_bottom_valid,dist_bottom_sensor_bitfield
768000,768000,0,nan,nan,1.0755358e-19,8.604286e-19,8.53408e-08,0.0,0.0,0.0,1.9975647e-17,1.5980518e-16,2.7067581e-05,2.7301816e-05,2.7755576e-17,2.220446e-16,0.0,-1.3877788e-15,-1.110223e-14,0.0049717724,0.121145904,0.121145904,nan,0.10000055,0.70622146,3.5000029,7.071068,0.45001808,inf,inf,inf,inf,0,1,0,1,1,0,1,0,1,0,0,1,2
997000,997000,0,nan,nan,2.6167234e-18,-6.003479e-16,0.0104136225,0.0,0.0,0.0,7.7118723e-17,-5.707604e-15,0.0015015829,0.010908899,2.7755576e-17,2.220446e-16,0.0,1.3877788e-15,-2.220446e-14,0.0049710274,0.121145904,0.121145904,nan,0.10371741,0.68958235,1.5661205,4.5269957,0.45197627,inf,inf,inf,inf,0,1,0,1,1,0,1,0,1,0,0,1,2
1496000,1496000,0,nan,nan,3.0998177e-15,-2.9908977e-14,0.008306901,0.0,0.0,0.0,1.6545877e-14,-1.4930369e-13,0.0040804767,0.006217722,2.7755576e-17,2.220446e-16,0.0,7.285838e-14,-6.106226e-13,0.004935078,0.121145904,0.121145904,nan,0.1,0.7337198,0.91679084,1.859152,0.4666322,inf,inf,inf,inf,0,1,0,1,1,0,1,0,1,0,0,1,2
1999000,1999000,0,nan,nan,2.1098521e-15,-2.4565514e-14,0.010190864,0.0,0.0,0.0,7.849126e-15,-8.018756e-14,0.0067019146,0.0071166344,2.7755576e-17,2.220446e-16,0.0,1.1895247e-14,-1.110223e-13,0.0049652797,0.121145904,0.121145904,nan,0.1,0.72700834,0.75320953,1.4770849,0.49412593,inf,inf,inf,inf,0,1,0,1,1,0,1,0,1,0,0,1,2
2496000,2496000,0,nan,nan,-2.879461e-14,2.3076503e-13,0.015302239,0.0,0.0,0.0,-1.3313614e-13,1.0832587e-12,0.009772834,0.01131662,2.7755576e-17,2.220446e-16,0.0,-6.7307265e-13,5.523359e-12,0.0052889804,0.121145904,0.121145904,nan,0.10184914,0.58647704,0.7258091,1.4475293,0.5249451,inf,inf,inf,inf,0,1,0,1,1,0,1,0,1,0,0,1,2
3000000,3000000,0,nan,nan,-7.607799e-14,6.2481487e-13,0.021790931,0.0,0.0,0.0,-1.3026223e-13,1.0710181e-12,0.012474855,0.013764773,2.7755576e-17,2.220446e-16,0.0,-3.8337386e-13,3.1363798e-12,0.0051511447,0.121145904,0.121145904,nan,0.1,0.70830256,0.73321456,1.5855281,0.5431519,inf,inf,inf,inf,0,1,0,1,1,0,1,0,1,0,0,1,2
3500000,3500000,0,nan,nan,8.832541e-15,-6.80061e-14,0.022065068,0.0,0.0,0.0,1.6329248e-13,-1.3368114e-12,0.011768235,0.007250042,2.7755576e-17,2.220446e-16,0.0,1.9446248e-12,-1.598721e-11,0.0040475274,0.121145904,0.121145904,nan,0.1,0.5480319,0.7735631,1.2083585,0.55320984,inf,inf,inf,inf,0,1,0,1,1,0,1,0,1,0,0,1,2
3999000,3999000,0,nan,nan,-2.5839108e-14,2.1301732e-13,0.018037356,0.0,0.0,0.0,2.0817239e-13,-1.717833e-12,0.009423372,0.00039411703,2.7755576e-17,2.220446e-16,0.0,2.981742e-12,-2.452007e-11,0.0035571202,0.121145904,0.121145904,nan,0.1,0.62020886,0.7905373,1.2278312,0.54201776,inf,inf,inf,inf,0,1,0,1,1,0,1,0,1,0,0,1,2
4500000,4488000,0,nan,nan,-1.9276369e-13,1.577018e-12,0.016849287,0.0,0.0,0.0,1.5952647e-13,-1.3282288e-12,0.008505876,-0.000501495,2.7755576e-17,2.220446e-16,0.0,1.8214594e-12,-1.4974131e-11,0.0041062008,0.121145904,0.121145904,nan,0.10209644,0.6758113,0.80986726,1.2115575,0.5276517,inf,inf,inf,inf,0,1,0,1,1,0,1,0,1,0,0,1,2
4992000,4984000,0,nan,nan,-2.0439782e-13,1.6670712e-12,0.019298756,0.0,0.0,0.0,2.7789793e-13,-2.3096668e-12,0.009030361,0.0017745282,2.7755576e-17,2.220446e-16,0.0,5.5008077e-12,-4.519995e-11,0.0023618338,0.121145904,0.121145904,nan,0.1,0.54025346,0.82153696,0.9780575,0.5095119,inf,inf,inf,inf,0,1,0,1,1,0,1,0,1,0,0,1,2
5500000,5492000,0,nan,nan,5.6771934e-11,-1.1443939e-05,0.015422962,0.0,0.0,0.0,4.1621254e-10,-6.494842e-05,0.0065435376,-0.003652043,2.7755576e-17,2.220446e-16,0.0,1.853944e-09,-0.00020803495,0.0028228385,0.12116379,0.121145904,nan,0.1,0.59724844,0.8055465,0.9746368,0.48202637,inf,inf,inf,inf,0,1,0,1,1,0,1,0,1,0,0,1,2
5995000,5983000,5500000,40.1540302,116.2594857,9.765471e-10,-8.245609e-05,0.006140556,0.0,0.0,0.0,3.8504515e-09,-0.0002634288,0.0020659217,-0.01264892,2.7755576e-17,2.220446e-16,0.0,9.115824e-09,-0.00045711503,0.0020882913,0.12118725,0.121145904,49.942364,0.10015309,0.4814856,0.8046122,0.7734919,0.46342784,inf,inf,inf,inf,0,1,0,1,1,0,1,0,1,1,1,1,0
6500000,6484000,5500000,40.1540302,116.2594857,3.768886e-09,-0.00020141277,0.0077084266,0.0,0.0,0.0,1.1027617e-08,-0.00050176866,0.003064789,-0.0047827004,2.7755576e-17,2.220446e-16,0.0,1.8366242e-08,-0.00064281694,0.0013820827,0.12121071,0.121145904,49.942364,0.10155545,0.5318358,0.7855989,0.77645195,0.43901616,inf,inf,inf,inf,0,1,0,1,1,0,1,0,1,1,1,1,0
7000000,6984000,5500000,40.1540302,116.2594857,-2.0932061e-06,-0.00034193174,0.008603038,0.0,0.0,0.0,-2.0793503e-05,-0.00072670914,0.003149405,-0.002433104,2.7755576e-17,2.220446e-16,0.0,-9.111553e-05,-0.00075791514,0.00095274294,-0.0041612927,-0.12539355,49.942364,0.10099737,0.5677914,0.7884839,0.66909456,0.42373046,inf,inf,inf,inf,0,1,0,1,1,0,1,0,2,1,1,1,0
7504000,7492000,5500000,40.1540302,116.2594857,-2.3001372e-05,-0.00048436,0.0065110545,0.0,0.0,0.0,-6.5807864e-05,-0.00097235636,0.0020741848,-0.00441719,2.7755576e-17,2.220446e-16,0.0,-8.097354e-05,-0.0009506179,-0.0010151415,-0.004162625,-0.12539355,49.942364,0.1,0.4475873,0.7676932,0.51255906,0.40073684,inf,inf,inf,inf,0,1,0,1,1,0,1,0,2,1,1,1,0
7995000,7984000,5500000,40.1540302,116.2594857,-4.500086e-05,-0.0006690512,0.009341927,0.0,0.0,0.0,-8.639793e-05,-0.0012392186,0.0032159253,0.0009026282,2.7755576e-17,2.220446e-16,0.0,-5.989453e-05,-0.0010425032,0.0013500452,-0.0041652336,-0.12539355,49.942364,0.101295575,0.47415122,0.76609474,0.5951854,0.38555777,inf,inf,inf,inf,0,1,0,1,1,0,1,0,2,1,1,1,0
8504000,8504000,5500000,40.1540302,116.2594857,-5.3998014e-05,-0.00083178916,0.016609317,0.0,0.0,0.0,-7.534254e-05,-0.00136263,0.005723742,0.007709765,2.7755576e-17,2.220446e-16,0.0,-2.420611e-05,-0.0009822448,0.0017667188,-0.0041617746,-0.12539355,49.942364,0.1019753,0.4376138,0.7495423,0.5927068,0.36540544,inf,inf,inf,inf,0,1,0,1,1,0,1,0,2,1,1,1,0
9004000,9004000,5500000,40.1540302,116.2594857,-4.028902e-05,-0.0008420471,0.021582436,0.0,0.0,0.0,-3.6884274e-05,-0.0012762322,0.0068951743,0.008469488,2.7755576e-17,2.220446e-16,0.0,1.3502521e-05,-0.0008555956,0.0023785976,-0.004152729,-0.12539355,49.942364,0.1,0.4892032,0.7317722,0.5952063,0.3460127,inf,inf,inf,inf,0,1,0,1,1,0,1,0,2,1,1,1,0
9504000,9504000,5500000,40.1540302,116.2594857,-1.3053578e-05,-0.0007486738,0.019524353,0.0,0.0,0.0,8.074043e-06,-0.0011220238,0.0055057653,0.0023179313,2.7755576e-17,2.220446e-16,0.0,3.966003e-05,-0.0007781991,0.0020228324,-0.0041408907,-0.12539355,49.942364,0.1,0.425753,0.73019344,0.47535425,0.33261693,inf,inf,inf,inf,0,1,0,1,1,0,1,0,2,1,1,1,0
10000000,10000000,5500000,40.1540302,116.2594857,1.471582e-05,-0.00065519946,0.020673294,0.0,0.0,0.0,4.4248613e-05,-0.0010370519,0.005427117,0.001888098,2.7755576e-17,2.220446e-16,0.0,5.4898755e-05,-0.0007667652,-0.00023283063,-0.004130343,-0.12539355,49.942364,0.1,0.4476314,0.7118996,0.4353563,0.31435844,inf,inf,inf,inf,0,1,0,1,1,0,1,0,2,1,1,1,0
10500000,10500000,5500000,40.1540302,116.2594857,0.0003617375,0.011646139,0.026985144,-6.1674855e-06,0.00057522114,0.0,0.0010801979,0.024902666,0.023713242,0.008811742,-0.010036629,0.031005317,0.04602959,-0.0017353577,-0.0006085595,0.0014705582,-0.004128531,-0.12539355,49.942364,0.1,0.2580627,0.62450266,0.17724031,0.15830214,inf,inf,inf,inf,1,1,1,1,2,0,2,1,2,1,1,1,0
10997000,10997000,5500000,40.1540302,116.2594857,0.005845514,0.019444745,0.00046635699,-6.1674855e-06,0.00057522114,0.0,0.010142581,0.023578642,-0.010009418,-0.03575418,-0.010036629,0.031005317,0.04602959,0.0056744344,-0.002501795,-3.2782555e-05,-0.0041076518,-0.12539355,49.942364,0.1,0.22096854,0.55860394,0.1831258,0.13370806,inf,inf,inf,inf,1,1,1,1,2,0,2,1,2,1,1,1,0
11507000,11507000,5500000,40.1540302,116.2594857,0.013937616,0.028832836,0.012543556,-6.1674855e-06,0.00057522114,0.0,0.018933054,0.027491566,0.0003685524,-0.004790281,-0.010036629,0.031005317,0.04602959,0.01180756,-0.0013665447,0.00078883016,-0.0038525758,-0.12539355,49.942364,0.1,0.18895954,0.5050278,0.17067048,0.11450411,inf,inf,inf,inf,1,1,1,1,2,0,2,1,2,1,1,1,0
11996000,11996000,5500000,40.1540302,116.2594857,-0.0018912104,-0.0032587107,0.04666361,-6.1674855e-06,0.00057522114,0.0,-0.011222405,-0.030364016,0.017532729,0.04169197,-0.010036629,0.031005317,0.04602959,-0.01529423,-0.043849844,0.0047488133,-0.005026233,-0.12539355,49.942364,0.12011394,0.18832071,0.47478908,0.18630473,0.111266755,inf,inf,inf,inf,1,1,1,1,2,0,2,1,2,1,1,1,0
12504000,12504000,5500000,40.1540302,116.2594857,-0.018461253,-0.012158725,0.051416513,-6.1674855e-06,0.00057522114,0.0,-0.026995342,-0.029379694,0.017660307,0.023393149,-0.010036629,0.031005317,0.04602959,-0.01731174,-0.023639344,0.0018313527,-0.006033482,-0.12539355,49.942364,0.1,0.18236528,0.44588736,0.17886552,0.10791885,inf,inf,inf,inf,1,1,1,1,2,0,2,1,2,1,1,1,0
12999000,12999000,5500000,40.1540302,116.2594857,-0.001920848,-0.0098476345,0.07362518,-6.1674855e-06,0.00057522114,0.0,0.0013832579,-0.020960111,0.0269634,0.03652706,-0.010036629,0.031005317,0.04602959,0.0044172024,-0.01413082,0.0035800037,-0.006439631,-0.12539355,49.942364,0.1,0.17896011,0.4267217,0.16972493,0.10679294,inf,inf,inf,inf,1,1,1,1,2,0,2,1,2,1,1,1,0
13500000,13500000,5500000,40.1540302,116.2594857,-0.0044868654,-0.0077101947,0.051482417,-6.1674855e-06,0.00057522114,0.0,-0.004983372,-0.016029919,0.014371038,-0.014660232,-0.010036629,0.031005317,0.04602959,-0.0031322397,-0.0103857275,-0.0026850027,-0.0065525863,-0.12539355,49.942364,0.1,0.1765751,0.40871847,0.16255106,0.10613565,inf,inf,inf,inf,1,1,1,1,2,0,2,1,2,1,1,1,0
13996000,13996000,5500000,40.1540302,116.2594857,0.007802124,-0.013027444,-0.019278958,-6.1674855e-06,0.00057522114,0.0,0.011475271,-0.01964649,-0.017178558,-0.0794598,-0.010036629,0.031005317,0.04602959,0.008556427,-0.009866918,-0.0074952836,-0.006569846,-0.12539355,49.942364,0.11101039,0.17509837,0.39700046,0.1582194,0.10587598,inf,inf,inf,inf,1,1,1,1,2,0,2,1,2,1,1,1,0
14496000,14496000,5500000,40.1540302,116.2594857,0.027305175,-0.015291104,-0.022124236,-6.1674855e-06,0.00057522114,0.0,0.03149567,-0.016189585,-0.01792464,-0.051727913,-0.010036629,0.031005317,0.04602959,0.018811254,-0.0030040615,-0.007849932,-0.0065172357,-0.12539355,49.942364,0.1,0.17396772,0.38531312,0.15374908,0.10522718,inf,inf,inf,inf,1,1,1,1,2,0,2,1,2,1,1,1,0
14992000,14992000,5500000,40.1540302,116.2594857,0.038327787,-0.009520146,-0.056733873,-6.1674855e-06,0.00057522114,0.0,0.03776502,-0.006468872,-0.034366123,-0.071023665,-0.010036629,0.031005317,0.04602959,0.018042734,0.0011375279,-0.011496246,-0.0061669205,-0.12539355,49.942364,0.1,0.17238893,0.37745547,0.14872769,0.104242794,inf,inf,inf,inf,1,1,1,1,2,0,2,1,2,1,1,1,0
15496000,15496000,5500000,40.1540302,116.2594857,0.0637193,-0.0051315045,-0.092357494,-6.1674855e-06,0.00057522114,0.0,0.06063534,0.00011047747,-0.049120903,-0.08081245,-0.010036629,0.031005317,0.04602959,0.029418658,0.0044925516,-0.016890464,-0.005741678,-0.12539355,49.942364,0.10039723,0.17270069,0.37004942,0.14692977,0.10338605,inf,inf,inf,inf,1,1,1,1,2,0,2,1,2,1,1,1,0
15996000,15996000,5500000,40.1540302,116.2594857,0.069721885,-0.006116554,-0.12254056,-6.1674855e-06,0.00057522114,0.0,0.05715514,-0.0026654701,-0.059905794,-0.079783306,-0.010036629,0.031005317,0.04602959,0.021873826,-0.0010936301,-0.010783225,-0.0052202037,-0.12539355,49.942364,0.12039638,0.17215726,0.3654343,0.14363244,0.10220048,inf,inf,inf,inf,1,1,1,1,2,0,2,1,2,1,1,1,0
16500000,16500000,5500000,40.1540302,116.2594857,0.054462053,-0.01635458,-0.1251842,-6.1674855e-06,0.00057522114,0.0,0.032250393,-0.00938009,-0.05695686,-0.049277015,-0.010036629,0.031005317,0.04602959,0.0041635563,0.0018758789,-0.011690891,-0.0051154965,-0.12539355,49.942364,0.11696757,0.17143807,0.3597684,0.14018264,0.10064115,inf,inf,inf,inf,1,1,1,1,2,0,2,1,2,1,1,1,0
17000000,17000000,5500000,40.1540302,116.2594857,0.017301917,-0.025545603,-0.112855695,-6.1674855e-06,0.00057522114,0.0,-0.004667929,-0.017147733,-0.046943918,-0.010630741,-0.010036629,0.031005317,0.04602959,-0.008164917,-0.0048557953,-0.009663402,-0.0050099147,-0.12539355,49.942364,0.14094797,0.17075287,0.35683396,0.13651572,0.099166304,inf,inf,inf,inf,1,1,1,1,2,0,2,1,2,1,1,1,0
17495000,17495000,5500000,40.1540302,116.2594857,0.0004500009,-0.041604836,-0.081742674,-6.1674855e-06,0.00057522114,0.0,-0.014903311,-0.029968845,-0.031111244,0.022753352,-0.010036629,0.031005317,0.04602959,-0.008041251,-0.009592557,-0.007869675,-0.0051072054,-0.12539355,49.942364,0.10958687,0.17013809,0.35270947,0.13351962,0.09751553,inf,inf,inf,inf,1,1,1,1,2,0,2,1,2,1,1,1,0
17997000,17997000,5500000,40.1540302,116.2594857,-0.010588342,-0.028335232,-0.03557945,-6.1674855e-06,0.00057522114,0.0,-0.021931034,-0.010358698,-0.0085267695,0.06885339,-0.010036629,0.031005317,0.04602959,-0.010499654,0.004084281,0.0018881013,-0.005108946,-0.12539355,49.942364,0.1340318,0.169417,0.3508668,0.13044053,0.09599183,inf,inf,inf,inf,1,1,1,1,2,0,2,1,2,1,1,1,0
18496000,18496000,5500000,40.1540302,116.2594857,-0.027201816,-0.025371388,0.04704941,-6.1674855e-06,0.00057522114,0.0,-0.034476105,-0.010037976,0.026964543,0.12979195,-0.010036629,0.031005317,0.04602959,-0.015727617,-0.0015535282,0.004987232,-0.004915625,-0.12539355,49.942364,0.1074227,0.16812402,0.34719083,0.1273835,0.09419678,inf,inf,inf,inf,1,1,1,1,2,0,2,1,2,1,1,1,0
18999000,18999000,5500000,40.1540302,116.2594857,-0.032540586,-0.034078345,0.071256146,-6.1674855e-06,0.00057522114,0.0,-0.034025956,-0.017423943,0.0327195,0.09427122,-0.010036629,0.031005317,0.04602959,-0.012649812,-0.0035999005,0.0040286356,-0.0049052937,-0.12539355,49.942364,0.1,0.16841955,0.3466539,0.12525707,0.09311671,inf,inf,inf,inf,1,1,1,1,2,0,2,1,2,1,1,1,0
19500000,19500000,5500000,40.1540302,116.2594857,-0.055988252,-0.014042958,0.066937424,-6.1674855e-06,0.00057522114,0.0,-0.051788334,0.003842992,0.0278164,0.046479404,-0.010036629,0.031005317,0.04602959,-0.020137565,0.0075396607,0.0020384789,-0.004776622,-0.12539355,49.942364,0.1,0.16789554,0.34414232,0.12281405,0.09185852,inf,inf,inf,inf,1,1,1,1,2,0,2,1,2,1,1,1,0
20004000,20004000,5500000,40.1540302,116.2594857,-0.06966756,-0.01859134,0.034683637,-6.1674855e-06,0.00057522114,0.0,-0.056708597,-0.004168957,0.012137734,-0.009841889,-0.010036629,0.031005317,0.04602959,-0.018965254,1.6223936e-05,0.0017778947,-0.0046291845,-0.12539355,49.942364,0.1,0.17640011,0.34472767,0.1286456,0.09293863,inf,inf,inf,inf,1,1,1,1,2,0,2,1,2,1,1,1,0
20495000,20495000,5500000,40.1540302,116.2594857,-0.0719276,-0.009076699,0.036482994,-6.1674855e-06,0.00057522114,0.0,-0.051810637,0.0061080935,0.013771183,0.0040148804,-0.010036629,0.031005317,0.04602959,-0.014976383,0.0071545662,0.0015608965,-0.0045534386,-0.12539355,49.942364,0.10789797,0.1744257,0.3436736,0.12462187,0.091886096,inf,inf,inf,inf,1,1,1,1,2,0,2,1,2,1,1,1,0
20997000,20997000,5500000,40.1540302,116.2594857,-0.045163073,-0.009741879,0.06580458,-6.1674855e-06,0.00057522114,0.0,-0.022964638,0.002204627,0.031080615,0.038295306,-0.010036629,0.031005317,0.04602959,-0.0021617261,0.0016414246,0.14156923,-0.0043735076,-0.12539355,49.942364,0.1,0.17332888,0.34327894,0.122087024,0.091205955,inf,inf,inf,inf,1,1,1,1,2,0,2,1,2,1,1,1,0
21496000,21496000,5500000,40.1540302,116.2594857,-0.021749735,-0.0077197705,0.031682994,-6.1674855e-06,0.00057522114,0.0,-0.004100969,0.003625376,0.02108483,-0.0071728886,-0.010036629,0.031005317,0.04602959,0.0013846478,0.004385444,-1.2025636,-0.0041334056,-0.12539355,49.942364,0.1,0.17233855,0.34136817,0.12039764,0.09054334,inf,inf,inf,inf,1,1,1,1,2,0,2,1,2,1,1,1,0
21996000,21996000,5500000,40.1540302,116.2594857,-0.0021999918,-0.016660504,0.023087204,-6.1674855e-06,0.00057522114,0.0,0.011162149,-0.0012682008,-0.01607967,-0.038006112,-0.010036629,0.031005317,0.04602959,0.013088301,0.017092654,-4.1682253,-0.0037700075,-0.12539355,49.942364,0.103716776,0.17160606,0.34121427,0.16199107,0.09015808,inf,inf,inf,inf,1,1,1,1,2,0,2,1,2,1,1,1,0
22499000,22499000,5500000,40.1540302,116.2594857,-0.025422454,0.022956705,0.010752255,-6.1674855e-06,0.00057522114,0.0,-0.05567487,0.048365936,-0.06715855,-0.089766815,-0.010036629,0.031005317,0.04602959,-0.099395216,-0.07788787,-1.7297556,-0.0016939093,-0.12539355,49.942364,0.11716252,0.1714035,0.3411586,0.1797982,0.0898653,inf,inf,inf,inf,1,1,1,1,2,0,2,1,2,1,1,1,0
22995000,22995000,5500000,40.1540302,116.2594857,-0.047078524,0.035034675,-0.24807914,-6.1674855e-06,0.00057522114,0.0,-0.040612467,-0.0028314227,-0.44398394,-0.49559453,-0.010036629,0.031005317,0.04602959,0.022744803,-0.08686312,0.5075442,0.0026535229,-0.12539355,49.942364,0.3759939,0.17078961,0.33910674,0.16962798,0.08936746,inf,inf,inf,inf,1,1,1,1,2,0,2,1,2,1,1,1,0
23496000,23496000,5500000,40.1540302,116.2594857,-0.027136886,-0.04445428,-0.42879105,-6.1674855e-06,0.00057522114,0.0,-0.012931686,-0.05551574,-0.30904588,-0.33641094,-0.010036629,0.031005317,0.04602959,-0.040080853,0.12329275,0.20525044,0.002449594,-0.12539355,49.942364,0.55670583,0.17147768,0.3397063,0.15586382,0.08941802,inf,inf,inf,inf,1,1,1,1,2,0,2,1,2,1,1,1,0
23996000,23996000,5500000,40.1540302,116.2594857,-0.025683807,-0.100343496,-0.5870267,-6.1674855e-06,0.00057522114,0.0,-0.0326241,-0.01321741,-0.20468268,-0.24369995,-0.010036629,0.031005317,0.04602959,-0.04384778,0.1561153,0.23622903,0.0010529588,-0.12539355,49.942364,0.7149415,0.1711285,0.33825058,0.14276066,0.08918918,inf,inf,inf,inf,1,1,1,1,2,0,2,1,2,1,1,1,0
24496000,24496000,5500000,40.1540302,116.2594857,-0.055942517,-0.100868344,-0.6777191,-6.1674855e-06,0.00057522114,0.0,-0.03991248,0.05679558,-0.14169727,-0.16796266,-0.010036629,0.031005317,0.04602959,0.031375118,0.11233822,0.08908286,0.00048508547,-0.12539355,49.942364,0.8056339,0.17057247,0.33843485,0.13192143,0.08911893,inf,inf,inf,inf,1,1,1,1,2,0,2,1,2,1,1,1,0
25000000,25000000,5500000,40.1540302,116.2594857,-0.08871415,-0.04151227,-0.72768635,-6.1674855e-06,0.00057522114,0.0,-0.027326047,0.0818369,-0.12202089,-0.12474976,-0.010036629,0.031005317,0.04602959,0.06397595,-0.0455899,0.02600625,0.0001975472,-0.12539355,49.942364,0.85560113,0.16977073,0.33708602,0.1231268,0.088925906,inf,inf,inf,inf,1,1,1,1,2,0,2,1,2,1,1,1,0
25496000,25496000,5500000,40.1540302,116.2594857,-0.12011658,-0.00896,-0.7452693,-6.1674855e-06,0.00057522114,0.0,-0.0029225496,0.046784148,-0.12752825,-0.09603871,-0.010036629,0.031005317,0.04602959,0.09901244,-0.058780152,-0.039143484,-0.00016013227,-0.12539355,49.942364,0.8731841,0.16883187,0.33735067,0.116278045,0.088862635,inf,inf,inf,inf,1,1,1,1,2,0,2,1,2,1,1,1,0
25999000,25999000,5500000,40.1540302,116.2594857,-0.11693561,0.011729891,-0.7847759,-6.1674855e-06,0.00057522114,0.0,0.031276517,0.015985932,-0.00516454,0.027330808,-0.010036629,0.031005317,0.04602959,0.011198378,-0.051158782,1.3806418,-0.00057424395,-0.12539355,49.942364,0.9126907,0.1756466,0.3396848,0.11677899,0.090582915,inf,inf,inf,inf,1,1,1,1,2,0,2,1,2,1,1,1,0
26503000,26503000,5500000,40.1540302,116.2594857,-0.078725055,0.017290454,-0.7168277,-6.1674855e-06,0.00057522114,0.0,0.020521004,0.007958759,0.0057391515,0.05161293,-0.010036629,0.031005317,0.04602959,-0.08773368,-0.021150284,-0.09367894,-0.00072313193,-0.12539355,49.942364,0.8447425,0.17425068,0.33840272,0.11258346,0.090387434,inf,inf,inf,inf,1,1,1,1,2,0,2,1,2,1,1,0,0
26996000,26996000,5500000,40.1540302,116.2594857,-0.05804878,0.04627738,-0.70231396,-6.1674855e-06,0.00057522114,0.0,-0.01112459,0.007457649,-0.01506142,0.025539268,-0.010036629,0.031005317,0.04602959,-0.090213284,-0.068162605,-0.111747526,-0.0007926761,-0.12539355,49.942364,0.83022875,0.17292868,0.33873895,0.11012041,0.09032248,inf,inf,inf,inf,1,1,1,1,2,0,2,1,2,1,1,0,0
27492000,27492000,5500000,40.1540302,116.2594857,-0.07498059,0.04032656,-0.6856222,-6.1674855e-06,0.00057522114,0.0,-0.040117163,-0.026019167,-0.0633119,-0.014991071,-0.010036629,0.031005317,0.04602959,-0.020907855,-0.03573243,-0.01587998,-0.0010976887,-0.12539355,49.942364,0.813537,0.1710917,0.33704376,0.10888752,0.08995085,inf,inf,inf,inf,1,1,1,1,2,0,2,1,2,1,1,0,0
28000000,28000000,5500000,40.1540302,116.2594857,-0.094350375,0.009638373,-0.73998064,-6.1674855e-06,0.00057522114,0.0,-0.037708063,-0.028792245,-0.024801923,-0.021485804,-0.010036629,0.031005317,0.04602959,0.008728767,0.037134357,0.14321506,-0.0014616655,-0.12539355,49.942364,0.8678954,0.17080319,0.33792186,0.10852213,0.09009767,inf,inf,inf,inf,1,1,1,1,2,0,2,1,2,1,1,0,0
28496000,28496000,5500000,40.1540302,116.2594857,-0.14103831,-0.012029176,-0.7289617,-6.1674855e-06,0.00057522114,0.0,-0.03642768,-0.014058999,-0.012727383,0.005738288,-0.010036629,0.031005317,0.04602959,0.08536979,0.047751017,-0.12538394,-0.0017487138,-0.12539355,49.942364,0.8568765,0.16995604,0.33679587,0.10863854,0.08992877,inf,inf,inf,inf,1,1,1,1,2,0,2,1,2,1,1,0,0
28999000,28999000,5500000,40.1540302,116.2594857,-0.15245466,-0.022808025,-0.742991,-6.1674855e-06,0.00057522114,0.0,0.013715738,0.008945334,-0.029565122,-0.02079729,-0.010036629,0.031005317,0.04602959,0.06878878,0.042521134,0.11168606,-0.001413944,-0.12539355,49.942364,0.87090576,0.16926093,0.33724868,0.10898081,0.089883104,inf,inf,inf,inf,1,1,1,1,2,0,2,1,2,1,1,0,0
29500000,29500000,5500000,40.1540302,116.2594857,-0.14957206,-0.04620888,-0.7397186,-6.1674855e-06,0.00057522114,0.0,-0.10859735,0.005259189,0.024125459,0.03576342,-0.010036629,0.031005317,0.04602959,-5.7907567,0.008563255,-0.021974554,-0.0009009107,-0.12539355,49.942364,0.8676334,0.16867693,0.33616322,0.10918889,0.08970838,inf,inf,inf,inf,1,1,1,1,2,0,2,1,2,1,1,0,0
30000000,30000000,5500000,40.1540302,116.2594857,-0.18566304,-0.058028422,-0.7433813,-6.1674855e-06,0.00057522114,0.0,-0.07468715,0.00420668,0.011574297,0.0061472775,-0.010036629,0.031005317,0.04602959,2.2376606,0.019770658,0.034298744,-0.0006471729,-0.12539355,49.942364,0.8712961,0.16831969,0.33664766,0.10965451,0.08968841,inf,inf,inf,inf,1,1,1,1,2,0,2,1,2,1,1,0,0
30503000,30503000,5500000,40.1540302,116.2594857,-0.086959615,-0.041028894,-0.76777315,-6.1674855e-06,0.00057522114,0.0,0.06526072,0.011994897,0.010466305,-0.015523047,-0.010036629,0.031005317,0.04602959,1.9730072,-0.0018640433,0.0056177373,-0.0002980522,-0.12539355,49.942364,0.89568794,0.16815606,0.33560792,0.11004956,0.08957046,inf,inf,inf,inf,1,1,1,1,2,0,2,1,2,1,1,0,0
31000000,31000000,5500000,40.1540302,116.2594857,0.0570536,-0.021408107,-0.79045814,-6.1674855e-06,0.00057522114,0.0,0.10369114,0.014411837,0.013592067,-0.018617585,-0.010036629,0.031005317,0.04602959,-0.67578614,-0.006642124,0.021888873,0.00022468131,-0.12539355,49.942364,0.9183729,0.16782369,0.33609545,0.10908423,0.08951341,inf,inf,inf,inf,1,1,1,1,2,0,2,1,2,1,1,0,0
31491000,31491000,5500000,40.1540302,116.2594857,0.09926007,0.0139504885,-0.756766,-6.1674855e-06,0.00057522114,0.0,0.030375108,0.020507066,0.013718044,0.01672164,-0.010036629,0.031005317,0.04602959,1.670824,-0.030842658,-0.072157,0.0009402459,-0.12539355,49.942364,0.8846808,0.16690148,0.33612454,0.109510764,0.08929542,inf,inf,inf,inf,1,1,1,1,2,0,2,1,2,1,1,0,0
31995000,31995000,5500000,40.1540302,116.2594857,-0.0064218873,0.017676575,-0.7563112,-6.1674855e-06,0.00057522114,0.0,-0.25396445,-0.00053390244,0.0038780046,0.00404955,-0.010036629,0.031005317,0.04602959,2.5745382,-0.00041634619,0.18403864,0.0017930778,-0.12539355,49.942364,0.88422596,0.16713355,0.3355769,0.108525164,0.08934008,inf,inf,inf,inf,1,1,1,1,2,0,2,1,2,1,1,0,0
32496000,32496000,5500000,40.1540302,116.2594857,0.02933713,0.01070309,-0.7161257,-6.1674855e-06,0.00057522114,0.0,0.17435457,-0.001772825,0.0066919047,0.031839054,-0.010036629,0.031005317,0.04602959,2.21249,0.011876303,-0.06869993,0.0023202847,-0.12539355,49.942364,0.8440405,0.16675445,0.33607456,0.10814643,0.089242965,inf,inf,inf,inf,1,1,1,1,2,0,2,1,2,1,1,0,0
33003000,33003000,5500000,40.1540302,116.2594857,0.09640627,0.03132609,-0.6896152,-6.1674855e-06,0.00057522114,0.0,0.13641381,0.0082125,0.0077706007,0.04080784,-0.010036629,0.031005317,0.04602959,-1.8729671,-0.026158012,0.0120550385,0.0026658156,-0.12539355,49.942364,0.81753,0.16635703,0.3350343,0.107515536,0.089068815,inf,inf,inf,inf,1,1,1,1,2,0,2,1,2,1,1,0,0
33500000,33500000,5500000,40.1540302,116.2594857,-0.016039276,0.058515735,-0.67799157,-6.1674855e-06,0.00057522114,0.0,-0.053868923,0.010605912,0.004777564,0.029168831,-0.010036629,0.031005317,0.04602959,-0.13081937,-0.03250164,-0.00287313,0.0029979793,-0.12539355,49.942364,0.80590636,0.16561396,0.33512262,0.11157545,0.086962745,inf,inf,inf,inf,1,1,1,1,2,0,2,1,2,1,1,0,0
34000000,34000000,5500000,40.1540302,116.2594857,-0.13898245,0.07553092,-0.6936518,-6.1674855e-06,0.00057522114,0.0,-0.031129615,0.0033847676,0.0017451432,0.0008548726,-0.010036629,0.031005317,0.04602959,-1.9855915,-0.039604314,0.04009716,0.0032261645,-0.12539355,49.942364,0.8215666,0.16439305,0.33470574,0.12534465,0.08263056,inf,inf,inf,inf,1,1,1,1,2,0,2,1,2,1,1,0,0
34504000,34504000,5500000,40.1540302,116.2594857,-0.23019436,0.06124944,-0.68850666,-6.1674855e-06,0.00057522114,0.0,0.034403764,-0.012910737,0.004992487,0.0076323613,-0.010036629,0.031005317,0.04602959,-0.09187683,0.003171731,-0.014106929,0.003382319,-0.12539355,49.942364,0.81642145,0.16571243,0.3340553,0.13522361,0.0806904,inf,inf,inf,inf,1,1,1,1,2,0,2,1,2,1,1,0,0
34988000,34988000,5500000,40.1540302,116.2594857,-0.28708684,0.052101865,-0.6730584,-6.1674855e-06,0.00057522114,0.0,0.13365273,-0.008980345,0.004056101,0.015670845,-0.010036629,0.031005317,0.04602959,-0.14158405,-0.0008478302,-0.0074751675,0.0033220383,-0.12539355,49.942364,0.8009732,0.17463055,0.33633733,0.14285028,0.081595406,inf,inf,inf,inf,1,1,1,1,2,0,2,1,2,1,1,0,0
35496000,35496000,5500000,40.1540302,116.2594857,-0.36348528,0.021460524,-0.6552567,-6.1674855e-06,0.00057522114,0.0,-0.075008325,-0.022734962,0.0022195312,0.019532736,-0.010036629,0.031005317,0.04602959,-1.5920765,0.032663386,-0.03864318,0.002714919,-0.12539355,49.942364,0.7831715,0.17431456,0.3348862,0.13807674,0.08188411,inf,inf,inf,inf,1,1,1,1,2,0,2,1,2,1,1,0,0
35996000,35996000,5500000,40.1540302,116.2594857,-0.40935043,0.01631519,-0.69858587,-6.1674855e-06,0.00057522114,0.0,-0.06019394,-0.009910871,-0.0012407983,-0.024889333,-0.010036629,0.031005317,0.04602959,-0.60677487,0.0032161814,0.047054138,0.0023398716,-0.12539355,49.942364,0.82650065,0.17454633,0.33541685,0.13176946,0.083004475,inf,inf,inf,inf,1,1,1,1,2,0,2,1,2,1,1,0,0
36496000,36496000,5500000,40.1540302,116.2594857,-0.38181072,0.010065383,-0.75022835,-6.1674855e-06,0.00057522114,0.0,0.07541713,-0.002629674,-0.00023567639,-0.0506157,-0.010036629,0.031005317,0.04602959,0.27915543,0.011833119,0.040022653,0.0019519912,-0.12539355,49.942364,0.87814313,0.17390205,0.33401924,0.1256003,0.08409817,inf,inf,inf,inf,1,1,1,1,2,0,2,1,2,1,1,0,0
37000000,37000000,5500000,40.1540302,116.2594857,-0.34157008,0.022704376,-0.7418304,-6.1674855e-06,0.00057522114,0.0,0.060755797,0.004024253,0.0047738804,-0.016961643,-0.010036629,0.031005317,0.04602959,0.28593644,-0.0117087485,-0.015137716,0.0014436862,-0.12539355,49.942364,0.8697452,0.1730563,0.3342487,0.120080516,0.08532502,inf,inf,inf,inf,1,1,1,1,2,0,2,1,2,1,1,0,0
37499000,37499000,5500000,40.1540302,116.2594857,-0.34301025,0.016947556,-0.7276437,-6.1674855e-06,0.00057522114,0.0,-0.11538852,-0.005400949,0.0045754956,0.0021480168,-0.010036629,0.031005317,0.04602959,1.1458586,0.004173355,-0.024503896,0.00092715793,-0.12539355,49.942364,0.8555585,0.17210796,0.33302277,0.115354486,0.08632378,inf,inf,inf,inf,1,1,1,1,2,0,2,1,2,1,1,0,0
37996000,37996000,5500000,40.1540302,116.2594857,-0.31727695,0.0066422075,-0.7355156,-6.1674855e-06,0.00057522114,0.0,0.037878267,-0.0061744777,0.0026808504,-0.0061528157,-0.010036629,0.031005317,0.04602959,-0.54821664,-0.0010428575,0.029720364,0.00037992222,-0.12539355,49.942364,0.8634304,0.1712815,0.33341333,0.111694045,0.0873037,inf,inf,inf,inf,1,1,1,1,2,0,2,1,2,1,1,0,0
38488000,38488000,5500000,40.1540302,116.2594857,-0.32309443,-0.026228117,-0.71825534,-6.1674855e-06,0.00057522114,0.0,-0.15193288,-0.018788764,0.0021003888,0.00846356,-0.010036629,0.031005317,0.04602959,-1.2631698,0.027667832,-0.03424752,-0.00011104762,-0.12539355,49.942364,0.8461701,0.16959098,0.33343786,0.10846201,0.08786015,inf,inf,inf,inf,1,1,1,1,2,0,2,1,2,1,1,0,0
38996000,38996000,5500000,40.1540302,116.2594857,-0.2831028,-0.050730195,-0.7399871,-6.1674855e-06,0.00057522114,0.0,-0.020900084,-0.0134927,-0.000746047,-0.015720176,-0.010036629,0.031005317,0.04602959,1.7833916,0.026063772,0.05777366,-0.00068815774,-0.12539355,49.942364,0.86790186,0.16932398,0.33290285,0.10673132,0.08852865,inf,inf,inf,inf,1,1,1,1,2,0,2,1,2,1,1,0,0
39496000,39496000,5500000,40.1540302,116.2594857,-0.14420582,-0.06288155,-0.74325234,-6.1674855e-06,0.00057522114,0.0,0.016567264,-0.007698217,0.0017228688,-0.008661186,-0.010036629,0.031005317,0.04602959,0.66509867,0.022945829,-0.0072298567,-0.0012289456,-0.12539355,49.942364,0.8711671,0.1683121,0.33350724,0.10507746,0.08891816,inf,inf,inf,inf,1,1,1,1,2,0,2,1,2,1,1,0,0
40000000,40000000,5500000,40.1540302,116.2594857,-0.055706844,-0.04701389,-0.75265074,-6.1674855e-06,0.00057522114,0.0,-0.044051148,0.02200019,0.15329182,0.13465723,-0.010036629,0.031005317,0.04602959,0.33508715,0.13415253,1.7135841,0.03445264,-0.12539355,49.942364,0.8805655,0.16665223,0.33218625,0.10354449,0.08885664,inf,inf,inf,inf,1,1,1,1,2,0,2,1,2,1,1,0,0
40504000,40504000,5500000,40.1540302,116.2594857,0.035284393,-0.027442984,-0.41885328,-6.1674855e-06,0.00057522114,0.0,0.12490969,-0.0155928265,0.72419167,0.75213546,-0.010036629,0.031005317,0.04602959,0.4789818,0.007308495,-0.46317276,0.047769208,-0.12539355,49.942364,0.54676807,0.16720717,0.33381587,0.101857044,0.08943454,inf,inf,inf,inf,1,1,1,1,2,0,2,1,2,1,1,0,0
41004000,41004000,5500000,40.1540302,116.2594857,0.1245417,-0.039977066,-0.15435877,-6.1674855e-06,0.00057522114,0.0,0.03883289,-0.019199805,0.5962703,0.58303046,-0.010036629,0.031005317,0.04602959,1.1370361,0.008675552,0.23520663,-0.009686147,-0.12539355,49.942364,0.28227353,0.16652776,0.33304036,0.10283789,0.08942471,inf,inf,inf,inf,1,1,1,1,2,0,2,1,2,1,1,0,0
41500000,41500000,5500000,40.1540302,116.2594857,0.16569173,-0.058343742,-0.08282926,-6.1674855e-06,0.00057522114,0.0,0.28735474,-0.036538053,-0.19051954,-0.21528816,-0.010036629,0.031005317,0.04602959,1.5472043,-0.034876987,-2.8749692,-0.013042131,-0.12539355,49.942364,0.21074402,0.16530727,0.33331665,0.10594486,0.086791605,inf,inf,inf,inf,1,1,1,1,2,0,2,1,2,1,1,0,0
41996000,41996000,5500000,40.1540302,116.2594857,0.22509673,-0.05964951,-0.08316177,-6.1674855e-06,0.00057522114,0.0,0.36624253,-0.036036637,-0.0118285455,-0.006928092,-0.010036629,0.031005317,0.04602959,1.091886,-0.020469738,-2.1726189,-0.012210751,-0.12539355,49.942364,0.21107654,0.17206421,0.3356983,0.12523197,0.084393606,inf,inf,inf,inf,1,1,1,1,2,0,2,1,2,1,1,0,0
42496000,42496000,5500000,40.1540302,116.2594857,0.16413726,-0.05629019,-0.03780393,-6.1674855e-06,0.00057522114,0.0,0.05544203,-0.031979956,0.01482447,0.06273633,-0.010036629,0.031005317,0.04602959,4.3481183,-0.0651467,-0.99373883,-0.012283174,-0.12539355,49.942364,0.1657187,0.1723385,0.33456483,0.13448076,0.08237641,inf,inf,inf,inf,1,1,1,1,2,0,2,1,2,1,1,0,0
42994000,42994000,5500000,40.1540302,116.2594857,0.1329626,-0.04762286,-0.02722261,-6.1674855e-06,0.00057522114,0.0,0.19024841,-0.02528907,-0.005028369,0.02919206,-0.010036629,0.031005317,0.04602959,0.61900735,-0.011830443,-0.063961,-0.012394722,-0.12539355,49.942364,0.10355747,0.17277984,0.3348821,0.13112953,0.081937574,inf,inf,inf,inf,1,1,1,1,2,0,2,1,2,1,1,1,0
43504000,43504000,5500000,40.1540302,116.2594857,0.13472694,-0.03702785,-0.020587917,-6.1674855e-06,0.00057522114,0.0,-0.073415644,-0.012952119,-0.0054845824,0.017866282,-0.010036629,0.031005317,0.04602959,-1.8262084,0.023998091,0.03022421,-0.012490398,-0.12539355,49.942364,0.1,0.16614173,0.33255184,0.12065267,0.081140645,inf,inf,inf,inf,1,1,1,1,2,0,2,1,2,1,1,1,0
44000000,44000000,5500000,40.1540302,116.2594857,0.09224233,-0.01721425,-0.037084673,-6.1674855e-06,0.00057522114,0.0,-0.08958693,0.0022341106,-0.011076331,-0.0049485047,-0.010036629,0.031005317,0.04602959,0.77922416,-0.0069091795,-0.01456663,-0.012593883,-0.12539355,49.942364,0.101448804,0.17296216,0.33391994,0.12342745,0.08330161,inf,inf,inf,inf,1,1,1,1,2,0,2,1,2,1,1,1,0
44503000,44503000,5500000,40.1540302,116.2594857,0.047860794,-0.015683968,-0.017726967,-6.1674855e-06,0.00057522114,0.0,-0.040656187,-0.0019172768,-0.0013692144,0.019875493,-0.010036629,0.031005317,0.04602959,-0.81825083,0.007926923,0.010139308,-0.012679643,-0.12539355,49.942364,0.10758993,0.17250615,0.3342026,0.12058659,0.08446948,inf,inf,inf,inf,1,1,1,1,2,0,2,1,2,1,1,1,0
45000000,45000000,5500000,40.1540302,116.2594857,0.017923525,0.0015516045,-0.017585406,-6.1674855e-06,0.00057522114,0.0,-0.10204041,0.012322483,-0.0016298313,0.006525373,-0.010036629,0.031005317,0.04602959,-0.45998654,0.010516224,0.0031171364,-0.01277669,-0.12539355,49.942364,0.1,0.17188793,0.33305165,0.11785904,0.08555102,inf,inf,inf,inf,1,1,1,1,2,0,2,1,2,1,1,1,0
45500000,45500000,5500000,40.1540302,116.2594857,-0.01362261,0.020679047,-0.015855372,-6.1674855e-06,0.00057522114,0.0,-0.25452498,0.025156926,0.0020675226,0.0128242215,-0.010036629,0.031005317,0.04602959,-4.2697725,0.06313748,0.05218107,-0.012798515,-0.12539355,49.942364,0.10922278,0.17123759,0.33200634,0.11528976,0.086529,inf,inf,inf,inf,1,1,1,1,2,0,2,1,2,1,1,1,0
