timestamp,timestamp_sample,ref_timestamp,ref_lat,ref_lon,x,y,z,delta_xy[0],delta_xy[1],delta_z,vx,vy,vz,z_deriv,delta_vxy[0],delta_vxy[1],delta_vz,ax,ay,az,heading,delta_heading,ref_alt,dist_bottom,eph,epv,evh,evv,vxy_max,vz_max,hagl_min,hagl_max,xy_valid,z_valid,v_xy_valid,v_z_valid,xy_reset_counter,z_reset_counter,vxy_reset_counter,vz_reset_counter,heading_reset_counter,xy_global,z_global,dist_bottom_valid,dist_bottom_sensor_bitfield
748000,748000,0,nan,nan,2.6630325e-19,3.729414e-19,1.31283e-07,0.0,0.0,0.0,2.6638673e-17,1.06554693e-16,3.57947e-05,3.589982e-05,5.551115e-17,-0.0,0.0,-3.9650824e-15,1.586033e-14,0.0049706018,0.121145904,0.121145904,nan,0.100000225,0.70622146,3.5000029,7.071068,0.45001808,inf,inf,inf,inf,0,1,0,1,1,0,1,0,1,0,0,1,2
992000,992000,0,nan,nan,-2.0261486e-16,7.375379e-16,0.010530521,0.0,0.0,0.0,-1.5531609e-15,6.2621065e-15,0.001634199,0.011295089,5.551115e-17,-0.0,0.0,-5.20417e-15,4.163336e-14,0.004970468,0.121145904,0.121145904,nan,0.11287028,0.72453165,1.5663112,4.3749113,0.4523683,inf,inf,inf,inf,0,1,0,1,1,0,1,0,1,0,0,1,2
1500000,1500000,0,nan,nan,1.0946231e-15,-1.4824396e-14,0.0203006,0.0,0.0,0.0,8.842925e-15,-9.001451e-14,0.004366456,0.015777186,5.551115e-17,-0.0,0.0,1.3877787e-14,-1.2490008e-13,0.004961155,0.121145904,0.121145904,nan,0.1,0.74204296,0.9163981,1.8687917,0.46709162,inf,inf,inf,inf,0,1,0,1,1,0,1,0,1,0,0,1,2
1994000,1994000,0,nan,nan,5.777736e-15,-5.542663e-14,0.021975508,0.0,0.0,0.0,1.8482023e-14,-1.685347e-13,0.006753858,0.012215605,5.551115e-17,-0.0,0.0,2.1926905e-13,-1.8207658e-12,0.004865229,0.121145904,0.121145904,nan,0.1,0.5165544,0.7518122,1.2206507,0.49449116,inf,inf,inf,inf,0,1,0,1,1,0,1,0,1,0,0,1,2
2503000,2503000,0,nan,nan,3.9218517e-14,-3.266391e-13,0.024024948,0.0,0.0,0.0,8.881257e-14,-7.3712694e-13,0.008907766,0.010695551,5.551115e-17,-0.0,0.0,-5.9476235e-15,3.172066e-14,0.0049716663,0.121145904,0.121145904,nan,0.1,0.6141871,0.7112302,1.4957982,0.5233317,inf,inf,inf,inf,0,1,0,1,1,0,1,0,1,0,0,1,2
2994000,2994000,0,nan,nan,5.177653e-14,-4.2381298e-13,0.028162573,0.0,0.0,0.0,1.1656602e-13,-9.556245e-13,0.011070268,0.01149971,5.551115e-17,-0.0,0.0,1.7115939e-13,-1.4432899e-12,0.00488696,0.121145904,0.121145904,nan,0.1,0.72870773,0.7380938,1.6012836,0.5468904,inf,inf,inf,inf,0,1,0,1,1,0,1,0,1,0,0,1,2
3500000,3500000,0,nan,nan,1.5894792e-14,-1.256105e-13,0.034005187,0.0,0.0,0.0,5.8312526e-14,-4.727504e-13,0.013305367,0.012866809,5.551115e-17,-0.0,0.0,8.743006e-13,-7.1886937e-12,0.0045532356,0.121145904,0.121145904,nan,0.1,0.57432526,0.7622999,1.2489419,0.5495714,inf,inf,inf,inf,0,1,0,1,1,0,1,0,1,0,0,1,2
3988000,3988000,0,nan,nan,-3.833838e-14,3.2197167e-13,0.03192992,0.0,0.0,0.0,1.3926394e-13,-1.1346634e-12,0.011409028,0.005194775,5.551115e-17,-0.0,0.0,1.3843092e-12,-1.1393663e-11,0.0043110917,0.121145904,0.121145904,nan,0.1,0.6466971,0.7976366,1.2510713,0.5448778,inf,inf,inf,inf,0,1,0,1,1,0,1,0,1,0,0,1,2
4504000,4504000,0,nan,nan,-2.1373314e-13,1.7632019e-12,0.029436694,0.0,0.0,0.0,7.833502e-14,-6.359621e-13,0.009415009,-0.00021467771,5.551115e-17,-0.0,0.0,4.0731307e-12,-3.3473224e-11,0.0030383468,0.121145904,0.121145904,nan,0.1,0.52602535,0.8037779,1.0227495,0.5234503,inf,inf,inf,inf,0,1,0,1,1,0,1,0,1,0,0,1,2
4995000,4995000,0,nan,nan,-2.4652353e-13,2.0274236e-12,0.031754587,0.0,0.0,0.0,2.3639418e-13,-1.9466343e-12,0.010004742,0.0026345183,5.551115e-17,-0.0,0.0,5.1472715e-12,-4.23106e-11,0.002528727,0.121145904,0.121145904,nan,0.1,0.57430524,0.810307,1.0210316,0.50463814,inf,inf,inf,inf,0,1,0,1,1,0,1,0,1,0,0,1,2
5503000,5503000,5503000,40.1540302,116.2594857,6.738323e-11,-1.2861163e-05,0.026642611,0.0,0.0,0.0,4.775036e-10,-7.0711234e-05,0.006820618,-0.0043259896,5.551115e-17,-0.0,0.0,2.0926372e-09,-0.00022071537,0.0017106533,0.12116491,0.121145904,49.952393,0.1,0.48235118,0.80274767,0.83594847,0.48077863,inf,inf,inf,inf,0,1,0,1,1,0,1,0,1,1,1,1,2
5996000,5996000,5503000,40.1540302,116.2594857,1.0170043e-09,-8.5170985e-05,0.019925853,0.0,0.0,0.0,3.9643604e-09,-0.00026895624,0.003410315,-0.010601522,5.551115e-17,-0.0,0.0,9.121677e-09,-0.00045676253,0.0016182661,0.12118744,0.121145904,49.952393,0.1,0.5253356,0.7932971,0.85340697,0.46003875,inf,inf,inf,inf,0,1,0,1,1,0,1,0,1,1,1,1,0
6495000,6495000,5503000,40.1540302,116.2594857,4.038782e-09,-0.00021351743,0.018188754,0.0,0.0,0.0,1.1501824e-08,-0.00051660166,0.0028609794,-0.0072286543,5.551115e-17,-0.0,0.0,1.8873745e-08,-0.00065053854,-0.00065068406,0.121211335,0.121145904,49.952393,0.1,0.5763133,0.79289705,0.83158976,0.42521244,inf,inf,inf,inf,0,1,0,1,1,0,1,0,1,1,1,1,0
7002000,7002000,5503000,40.1540302,116.2594857,-1.3679825e-07,-0.00034606937,0.021169951,0.0,0.0,0.0,-5.450331e-06,-0.0007290065,0.0039863833,-0.000980622,5.551115e-17,-0.0,0.0,-9.5737596e-05,-0.0007613333,0.000987947,-0.0041709924,-0.12540592,49.952393,0.100213915,0.48116547,0.7613464,0.6501253,0.36275446,inf,inf,inf,inf,0,1,0,1,1,0,1,0,2,1,1,1,0
7497000,7497000,5503000,40.1540302,116.2594857,-1.6802293e-05,-0.00047557798,0.022442987,0.0,0.0,0.0,-5.755547e-05,-0.00093965983,0.0042625046,0.00022441492,5.551115e-17,-0.0,0.0,-8.716013e-05,-0.0009291362,0.0027641654,-0.0041665453,-0.12540592,49.952393,0.1,0.48679957,0.74236,0.5277846,0.3308098,inf,inf,inf,inf,0,1,0,1,1,0,1,0,2,1,1,1,0
8000000,8000000,5503000,40.1540302,116.2594857,-4.1375915e-05,-0.00064401154,0.02536787,0.0,0.0,0.0,-8.6380445e-05,-0.0012090369,0.005130222,0.003726129,5.551115e-17,-0.0,0.0,-6.9025526e-05,-0.0010471587,0.0024829058,-0.0041698874,-0.12540592,49.952393,0.10356775,0.41666597,0.7177698,0.5176519,0.31730193,inf,inf,inf,inf,0,1,0,1,1,0,1,0,2,1,1,1,0
8496000,8496000,5503000,40.1540302,116.2594857,-5.5752265e-05,-0.0008191378,0.031789433,0.0,0.0,0.0,-8.563278e-05,-0.0013803929,0.0067831837,0.008170504,5.551115e-17,-0.0,0.0,-3.595318e-05,-0.001016195,0.001694262,-0.0041678105,-0.12540592,49.952393,0.1,0.450825,0.7052705,0.5863356,0.32210794,inf,inf,inf,inf,0,1,0,1,1,0,1,0,2,1,1,1,0
8996000,8996000,5503000,40.1540302,116.2594857,-5.0074905e-05,-0.0008942838,0.034875378,0.0,0.0,0.0,-5.4501455e-05,-0.0013645219,0.007231738,0.0072208946,5.551115e-17,-0.0,0.0,2.4190758e-06,-0.0009049358,0.002452172,-0.0041593174,-0.12540592,49.952393,0.1,0.4108031,0.68856907,0.53530383,0.3335834,inf,inf,inf,inf,0,1,0,1,1,0,1,0,2,1,1,1,0
9500000,9500000,5503000,40.1540302,116.2594857,-2.4730425e-05,-0.0008171631,0.03198624,0.0,0.0,0.0,-6.922076e-06,-0.0011966102,0.0056740325,0.00037690543,5.551115e-17,-0.0,0.0,3.440482e-05,-0.0007947016,0.0011384487,-0.004146503,-0.12540592,49.952393,0.1,0.4467802,0.6892665,0.51973164,0.35051817,inf,inf,inf,inf,0,1,0,1,1,0,1,0,2,1,1,1,0
9995000,9995000,5503000,40.1540302,116.2594857,5.5069245e-06,-0.0007140999,0.03262565,0.0,0.0,0.0,3.5301815e-05,-0.0010712959,0.0055394657,0.0010211822,5.551115e-17,-0.0,0.0,5.4753673e-05,-0.00075379474,6.332993e-05,-0.004134187,-0.12540592,49.952393,0.1,0.4768127,0.6892803,0.4778853,0.36499318,inf,inf,inf,inf,0,1,0,1,1,0,1,0,2,1,1,1,0
10508000,10508000,5503000,40.1540302,116.2594857,-0.02493849,0.020407166,0.060575765,-2.6004005e-07,0.00044767096,0.0,-0.04707914,0.041498266,0.066590674,0.051536,-0.08002992,0.0508748,0.074717,0.008040345,-0.0030133578,-0.00045862465,-0.004133503,-0.12540592,49.952393,0.1,0.2585178,0.60286486,0.17734392,0.16105916,inf,inf,inf,inf,1,1,1,1,2,0,2,1,2,1,1,1,0
11008000,11008000,5503000,40.1540302,116.2594857,-0.012966925,0.026583876,0.02699052,-2.6004005e-07,0.00044767096,0.0,-0.005049804,0.030153753,0.00991258,-0.036127467,-0.08002992,0.0508748,0.074717,0.023929415,-0.00671928,-0.005314748,-0.0041690245,-0.12540592,49.952393,0.1,0.21131672,0.54282504,0.16589072,0.13937165,inf,inf,inf,inf,1,1,1,1,2,0,2,1,2,1,1,1,0
11496000,11496000,5503000,40.1540302,116.2594857,0.005715903,0.033531874,0.03327803,-2.6004005e-07,0.00044767096,0.0,0.02482795,0.031034766,0.010314524,-0.009433394,-0.08002992,0.0508748,0.074717,0.03412063,0.0010546194,-0.014042481,-0.0041357633,-0.12540592,49.952393,0.1,0.18933082,0.4938156,0.16985439,0.13320716,inf,inf,inf,inf,1,1,1,1,2,0,2,1,2,1,1,1,0
12001000,12001000,5503000,40.1540302,116.2594857,0.0039650514,0.0061821677,0.044273637,-2.6004005e-07,0.00044767096,0.0,0.01187718,-0.024167048,0.013278643,0.012657786,-0.08002992,0.0508748,0.074717,0.005653397,-0.046914726,0.0070542097,-0.0048502316,-0.12540592,49.952393,0.13676265,0.17942789,0.46284416,0.17132087,0.13312976,inf,inf,inf,inf,1,1,1,1,2,0,2,1,2,1,1,1,0
12501000,12501000,5503000,40.1540302,116.2594857,-0.012035624,-0.010997662,0.06706868,-2.6004005e-07,0.00044767096,0.0,-0.009330452,-0.034888398,0.02022673,0.019849302,-0.08002992,0.0508748,0.074717,-0.0071513816,-0.02885038,-0.0023533192,-0.0060913754,-0.12540592,49.952393,0.1,0.17423144,0.43580693,0.16464339,0.13250469,inf,inf,inf,inf,1,1,1,1,2,0,2,1,2,1,1,1,0
12997000,12997000,5503000,40.1540302,116.2594857,0.00079759007,-0.01056627,0.08481537,-2.6004005e-07,0.00044767096,0.0,0.01473599,-0.026735336,0.02940224,0.033479683,-0.08002992,0.0508748,0.074717,0.016979776,-0.018428229,0.0017806888,-0.0066354643,-0.12540592,49.952393,0.1,0.17169848,0.41824207,0.15966144,0.13099496,inf,inf,inf,inf,1,1,1,1,2,0,2,1,2,1,1,1,0
13498000,13498000,5503000,40.1540302,116.2594857,-0.0010041428,-0.00868872,0.08217634,-2.6004005e-07,0.00044767096,0.0,0.0058725704,-0.020891394,0.021273045,0.0036012458,-0.08002992,0.0508748,0.074717,0.0011299892,-0.013322923,-0.010150884,-0.006789419,-0.12540592,49.952393,0.1,0.17025934,0.40186667,0.15508404,0.12812999,inf,inf,inf,inf,1,1,1,1,2,0,2,1,2,1,1,1,0
14000000,14000000,5503000,40.1540302,116.2594857,0.0066811633,-0.01273719,-0.005308109,-2.6004005e-07,0.00044767096,0.0,0.014798624,-0.021813193,-0.038892075,-0.10714075,-0.08002992,0.0508748,0.074717,0.00969257,-0.011503679,-0.011611198,-0.006836948,-0.12540592,49.952393,0.11110914,0.16925332,0.39123106,0.15019704,0.12469781,inf,inf,inf,inf,1,1,1,1,2,0,2,1,2,1,1,1,0
14494000,14494000,5503000,40.1540302,116.2594857,0.020030372,-0.01799965,-0.0059683556,-2.6004005e-07,0.00044767096,0.0,0.02750583,-0.023125937,-0.03296993,-0.06121895,-0.08002992,0.0508748,0.074717,0.015604972,-0.009558647,-0.019263476,-0.0068106125,-0.12540592,49.952393,0.10828794,0.17043056,0.38358223,0.14974962,0.1225218,inf,inf,inf,inf,1,1,1,1,2,0,2,1,2,1,1,1,0
14998000,14998000,5503000,40.1540302,116.2594857,0.03207429,-0.014743316,-0.03711875,-2.6004005e-07,0.00044767096,0.0,0.033463445,-0.013298935,-0.051377144,-0.07531382,-0.08002992,0.0508748,0.074717,0.012798271,-0.0007472646,-0.03483457,-0.006552556,-0.12540592,49.952393,0.101364,0.17081228,0.3750844,0.14894168,0.11908057,inf,inf,inf,inf,1,1,1,1,2,0,2,1,2,1,1,1,0
15494000,15494000,5503000,40.1540302,116.2594857,0.055932168,-0.0114991255,-0.0719074,-2.6004005e-07,0.00044767096,0.0,0.05473134,-0.006786854,-0.06694167,-0.083224796,-0.08002992,0.0508748,0.074717,0.025951086,0.0015729202,-0.01395618,-0.006116061,-0.12540592,49.952393,0.10996975,0.16905272,0.3666453,0.1452395,0.11481342,inf,inf,inf,inf,1,1,1,1,2,0,2,1,2,1,1,1,0
16000000,16000000,5503000,40.1540302,116.2594857,0.06582241,-0.0028435374,-0.103997655,-2.6004005e-07,0.00044767096,0.0,0.053566188,0.0041713812,-0.07888715,-0.08371388,-0.08002992,0.0508748,0.074717,0.017360022,0.0074361074,-0.014591961,-0.0054990947,-0.12540592,49.952393,0.11382987,0.16942704,0.3629821,0.14115074,0.11178561,inf,inf,inf,inf,1,1,1,1,2,0,2,1,2,1,1,1,0
16500000,16500000,5503000,40.1540302,116.2594857,0.06032666,-0.017748706,-0.10671415,-2.6004005e-07,0.00044767096,0.0,0.0392334,-0.010178905,-0.07252013,-0.047927268,-0.08002992,0.0508748,0.074717,0.007827878,0.00073688827,-0.007996957,-0.005277827,-0.12540592,49.952393,0.12080034,0.16965334,0.35827494,0.13894166,0.10876705,inf,inf,inf,inf,1,1,1,1,2,0,2,1,2,1,1,1,0
17004000,17004000,5503000,40.1540302,116.2594857,0.022317914,-0.021987263,-0.10543461,-2.6004005e-07,0.00044767096,0.0,-0.0031511015,-0.011508208,-0.06510885,-0.02242973,-0.08002992,0.0508748,0.074717,-0.01152897,-0.0012578261,-0.0058213873,-0.005041623,-0.12540592,49.952393,0.13750033,0.16834952,0.3550611,0.13541484,0.105575435,inf,inf,inf,inf,1,1,1,1,2,0,2,1,2,1,1,1,0
17504000,17504000,5503000,40.1540302,116.2594857,0.0015752598,-0.036801256,-0.06777008,-2.6004005e-07,0.00044767096,0.0,-0.017743815,-0.024162592,-0.040816158,0.027876198,-0.08002992,0.0508748,0.074717,-0.012752095,-0.00632512,-0.0032525924,-0.005030671,-0.12540592,49.952393,0.1079898,0.16870181,0.35169986,0.13331223,0.10303115,inf,inf,inf,inf,1,1,1,1,2,0,2,1,2,1,1,1,0
18004000,18004000,5503000,40.1540302,116.2594857,-0.008217611,-0.031975828,-0.03781556,-2.6004005e-07,0.00044767096,0.0,-0.023683654,-0.012835066,-0.023236368,0.054759085,-0.08002992,0.0508748,0.074717,-0.014489166,0.0036621979,-0.0003071295,-0.0050474866,-0.12540592,49.952393,0.12451658,0.17652029,0.35254678,0.13824211,0.103133135,inf,inf,inf,inf,1,1,1,1,2,0,2,1,2,1,1,1,0
18502000,18502000,5503000,40.1540302,116.2594857,-0.023647705,-0.020423133,0.044457853,-2.6004005e-07,0.00044767096,0.0,-0.035873394,-0.0029687763,0.017103767,0.12423331,-0.08002992,0.0508748,0.074717,-0.019343805,0.0032823314,0.0025611368,-0.004779617,-0.12540592,49.952393,0.11455859,0.17592686,0.34944797,0.13492079,0.10057736,inf,inf,inf,inf,1,1,1,1,2,0,2,1,2,1,1,1,0
18999000,18999000,5503000,40.1540302,116.2594857,-0.03083001,-0.031579673,0.08247637,-2.6004005e-07,0.00044767096,0.0,-0.036936916,-0.014472541,0.030174293,0.104657695,-0.08002992,0.0508748,0.074717,-0.015885146,-0.0015755253,0.002977997,-0.0047176178,-0.12540592,49.952393,0.1,0.17595913,0.3472208,0.13226737,0.098422475,inf,inf,inf,inf,1,1,1,1,2,0,2,1,2,1,1,1,0
19496000,19496000,5503000,40.1540302,116.2594857,-0.052052822,-0.01695303,0.086856455,-2.6004005e-07,0.00044767096,0.0,-0.053038385,0.0027153466,0.02894282,0.06380586,-0.08002992,0.0508748,0.074717,-0.023503799,0.008899302,0.0023402274,-0.0046212506,-0.12540592,49.952393,0.1,0.17420857,0.3458708,0.12904261,0.096256934,inf,inf,inf,inf,1,1,1,1,2,0,2,1,2,1,1,1,0
19996000,19996000,5503000,40.1540302,116.2594857,-0.0686563,-0.014809447,0.05961086,-2.6004005e-07,0.00044767096,0.0,-0.060637385,0.0008006018,0.014459375,0.0058715167,-0.08002992,0.0508748,0.074717,-0.022795424,0.0028410945,0.0010505317,-0.004413122,-0.12540592,49.952393,0.1,0.17462797,0.34464115,0.12610173,0.09483522,inf,inf,inf,inf,1,1,1,1,2,0,2,1,2,1,1,1,0
20500000,20500000,5503000,40.1540302,116.2594857,-0.076382786,-0.014207157,0.03991661,-2.6004005e-07,0.00044767096,0.0,-0.05968178,0.0022023218,0.0064280755,-0.010610219,-0.08002992,0.0508748,0.074717,-0.019964924,0.005895087,0.0022020605,-0.004353754,-0.12540592,49.952393,0.10540405,0.17244,0.34362155,0.12264095,0.09320947,inf,inf,inf,inf,1,1,1,1,2,0,2,1,2,1,1,1,0
20997000,20997000,5503000,40.1540302,116.2594857,-0.05760564,-0.006585274,0.074414335,-2.6004005e-07,0.00044767096,0.0,-0.036719706,0.006609031,0.020851603,0.03323394,-0.08002992,0.0508748,0.074717,-0.009205528,0.004785492,0.0016897917,-0.0041577173,-0.12540592,49.952393,0.1,0.17090474,0.3412255,0.121503405,0.09183744,inf,inf,inf,inf,1,1,1,1,2,0,2,1,2,1,1,1,0
21500000,21500000,5503000,40.1540302,116.2594857,-0.032024812,-0.0060140393,0.050202906,-2.6004005e-07,0.00044767096,0.0,-0.014822947,0.00629,0.007090939,-0.012684164,-0.08002992,0.0508748,0.074717,-0.004349011,0.005916556,0.00015273689,-0.004040555,-0.12540592,49.952393,0.1,0.17038646,0.33957776,0.119844966,0.09095319,inf,inf,inf,inf,1,1,1,1,2,0,2,1,2,1,1,1,0
21996000,21996000,5503000,40.1540302,116.2594857,-0.009306768,-0.01707587,0.037074625,-2.6004005e-07,0.00044767096,0.0,0.0026578144,-0.004797058,0.0026673763,-0.017369054,-0.08002992,0.0508748,0.074717,0.00073858787,5.8475278e-05,-0.9438153,-0.0038730097,-0.12540592,49.952393,0.10535711,0.16939119,0.3392386,0.11789705,0.09026922,inf,inf,inf,inf,1,1,1,1,2,0,2,1,2,1,1,1,0
22496000,22496000,5503000,40.1540302,116.2594857,-0.012281053,0.005522634,0.026150452,-2.6004005e-07,0.00044767096,0.0,-0.010404884,0.02280046,0.022173004,0.0024079098,-0.08002992,0.0508748,0.074717,-0.02081463,0.018213833,3.9241986,-0.0035144743,-0.12540592,49.952393,0.116258144,0.16893876,0.3378834,0.15031543,0.089753464,inf,inf,inf,inf,1,1,1,1,2,0,2,1,2,1,1,1,0
23003000,23003000,5503000,40.1540302,116.2594857,-0.028687995,0.051570654,-0.01614598,-2.6004005e-07,0.00044767096,0.0,-0.0213753,0.05694909,-0.10725729,-0.1336014,-0.08002992,0.0508748,0.074717,0.015239742,-0.13486123,0.32406375,-0.002207077,-0.12540592,49.952393,0.15855457,0.16992003,0.33711347,0.1781384,0.08957312,inf,inf,inf,inf,1,1,1,1,2,0,2,1,2,1,1,1,0
23504000,23504000,5503000,40.1540302,116.2594857,-0.008282725,-0.0032175789,-0.20032176,-2.6004005e-07,0.00044767096,0.0,0.0014332223,-0.07664771,-0.4561039,-0.48267576,-0.08002992,0.0508748,0.074717,-0.037617527,0.027072307,0.4705459,0.0017833167,-0.12540592,49.952393,0.34273034,0.1702624,0.33748016,0.17107932,0.08940378,inf,inf,inf,inf,1,1,1,1,2,0,2,1,2,1,1,1,0
23995000,23995000,5503000,40.1540302,116.2594857,0.005195324,-0.07175564,-0.41121268,-2.6004005e-07,0.00044767096,0.0,-0.012500545,-0.05540143,-0.29609033,-0.33525413,-0.08002992,0.0508748,0.074717,-0.086471476,0.1461981,0.29797107,0.0025052961,-0.12540592,49.952393,0.5536213,0.170764,0.33833036,0.1567259,0.08940425,inf,inf,inf,inf,1,1,1,1,2,0,2,1,2,1,1,1,0
24502000,24502000,5503000,40.1540302,116.2594857,-0.028529365,-0.09855179,-0.5426784,-2.6004005e-07,0.00044767096,0.0,-0.03964691,0.010022447,-0.20676273,-0.23480994,-0.08002992,0.0508748,0.074717,0.020659577,0.15031436,0.12955877,0.0010602395,-0.12540592,49.952393,0.685087,0.17014785,0.33707535,0.14305328,0.08910556,inf,inf,inf,inf,1,1,1,1,2,0,2,1,2,1,1,1,0
24999000,24999000,5503000,40.1540302,116.2594857,-0.062972136,-0.042278245,-0.61492103,-2.6004005e-07,0.00044767096,0.0,-0.02916449,0.068631634,-0.17475663,-0.17499901,-0.08002992,0.0508748,0.074717,0.064927116,-0.034785014,0.02643615,0.000474954,-0.12540592,49.952393,0.75732964,0.1690388,0.33545253,0.13183211,0.08873484,inf,inf,inf,inf,1,1,1,1,2,0,2,1,2,1,1,1,0
25497000,25497000,5503000,40.1540302,116.2594857,-0.09967592,-0.0048576267,-0.65453637,-2.6004005e-07,0.00044767096,0.0,-0.009564302,0.03946462,-0.16856833,-0.13501784,-0.08002992,0.0508748,0.074717,0.104427606,-0.070259444,-0.039268285,0.000205481,-0.12540592,49.952393,0.796945,0.16792925,0.335483,0.122923724,0.08854583,inf,inf,inf,inf,1,1,1,1,2,0,2,1,2,1,1,1,0
26004000,26004000,5503000,40.1540302,116.2594857,-0.10486409,0.017786272,-0.71137494,-2.6004005e-07,0.00044767096,0.0,0.030049814,0.013110118,-0.15262133,-0.1153443,-0.08002992,0.0508748,0.074717,0.07480136,-0.06712154,0.080150545,-0.00015971808,-0.12540592,49.952393,0.85378355,0.17623837,0.3369809,0.12308066,0.09039453,inf,inf,inf,inf,1,1,1,1,2,0,2,1,2,1,1,1,0
26497000,26497000,5503000,40.1540302,116.2594857,-0.059706096,0.014852571,-0.74007726,-2.6004005e-07,0.00044767096,0.0,0.060674034,-0.010383385,-0.11910145,-0.06728471,-0.08002992,0.0508748,0.074717,-0.029399564,-0.012671523,1.3345926,-0.0004887175,-0.12540592,49.952393,0.88248587,0.176163,0.33847922,0.11741813,0.090688094,inf,inf,inf,inf,1,1,1,1,2,0,2,1,2,1,1,1,0
27000000,27000000,5503000,40.1540302,116.2594857,-0.0128748845,0.039342023,-0.677846,-2.6004005e-07,0.00044767096,0.0,0.039162625,0.008174335,0.059631146,0.114231125,-0.08002992,0.0508748,0.074717,-0.08839767,-0.025576323,-0.26948255,-0.000687962,-0.12540592,49.952393,0.8202546,0.1755127,0.33826005,0.11290168,0.0907305,inf,inf,inf,inf,1,1,1,1,2,0,2,1,2,1,1,1,0
27499000,27499000,5503000,40.1540302,116.2594857,-0.0046087424,0.049415253,-0.62543756,-2.6004005e-07,0.00044767096,0.0,-0.001911667,-0.010265682,-0.029917806,0.03631828,-0.08002992,0.0508748,0.074717,-0.056737,-0.046824735,-0.15416071,-0.0009981224,-0.12540592,49.952393,0.76784617,0.17401206,0.33907804,0.10981544,0.09066743,inf,inf,inf,inf,1,1,1,1,2,0,2,1,2,1,1,0,0
27988000,27988000,5503000,40.1540302,116.2594857,-0.009208063,0.022767982,-0.66671693,-2.6004005e-07,0.00044767096,0.0,-0.016142625,-0.023422327,-0.0282063,-0.009683989,-0.08002992,0.0508748,0.074717,-0.023091843,0.024484666,0.12149661,-0.0013293742,-0.12540592,49.952393,0.80912554,0.1718878,0.33776698,0.10761861,0.09025597,inf,inf,inf,inf,1,1,1,1,2,0,2,1,2,1,1,0,0
28499000,28499000,5503000,40.1540302,116.2594857,-0.043453287,0.0060147336,-0.67522454,-2.6004005e-07,0.00044767096,0.0,-0.029976081,-0.009726303,0.0017884626,0.013552122,-0.08002992,0.0508748,0.074717,0.04356873,0.028077528,-0.09354762,-0.0016006985,-0.12540592,49.952393,0.81763315,0.17032856,0.3380842,0.107275955,0.09006159,inf,inf,inf,inf,1,1,1,1,2,0,2,1,2,1,1,0,0
29000000,29000000,5503000,40.1540302,116.2594857,-0.067969754,-0.0074498756,-0.6722408,-2.6004005e-07,0.00044767096,0.0,0.0016088588,0.0076532834,-0.034561966,-0.020486565,-0.08002992,0.0508748,0.074717,0.07612297,0.045570374,0.04471186,-0.0014342279,-0.12540592,49.952393,0.8146494,0.16921389,0.33691484,0.10755634,0.08981455,inf,inf,inf,inf,1,1,1,1,2,0,2,1,2,1,1,0,0
29494000,29494000,5503000,40.1540302,116.2594857,-0.057934653,-0.028408863,-0.6859751,-2.6004005e-07,0.00044767096,0.0,0.021848468,0.011176872,-0.01776428,-0.010818277,-0.08002992,0.0508748,0.074717,0.013068823,0.06972019,0.02401198,-0.0008243921,-0.12540592,49.952393,0.8283837,0.1677875,0.33689272,0.10782394,0.08954773,inf,inf,inf,inf,1,1,1,1,2,0,2,1,2,1,1,0,0
29994000,29994000,5503000,40.1540302,116.2594857,-0.05062971,-0.040256973,-0.69712347,-2.6004005e-07,0.00044767096,0.0,0.022567796,0.034507286,-0.010306457,-0.009691417,-0.08002992,0.0508748,0.074717,-0.0033807568,0.069523886,0.31358323,-0.00040460398,-0.12540592,49.952393,0.8395321,0.16764207,0.33627787,0.10800369,0.089505635,inf,inf,inf,inf,1,1,1,1,2,0,2,1,2,1,1,0,0
30500000,30500000,5503000,40.1540302,116.2594857,-0.022202661,-0.014080568,-0.71997535,-2.6004005e-07,0.00044767096,0.0,0.18651927,0.02630424,0.009797308,-0.009774083,-0.08002992,0.0508748,0.074717,2.8443048,-0.024142856,-0.008326023,4.9458744e-05,-0.12540592,49.952393,0.86238396,0.16713329,0.3352166,0.10873171,0.08932355,inf,inf,inf,inf,1,1,1,1,2,0,2,1,2,1,1,0,0
30996000,30996000,5503000,40.1540302,116.2594857,0.0023226836,0.0076257978,-0.74894,-2.6004005e-07,0.00044767096,0.0,0.12136174,0.020374369,0.0117509775,-0.022718342,-0.08002992,0.0508748,0.074717,-0.37314594,-0.017709669,0.03640819,0.00047779075,-0.12540592,49.952393,0.8913486,0.16553372,0.3348108,0.10864305,0.08893401,inf,inf,inf,inf,1,1,1,1,2,0,2,1,2,1,1,0,0
31499000,31499000,5503000,40.1540302,116.2594857,-0.058603726,0.04226961,-0.72244054,-2.6004005e-07,0.00044767096,0.0,0.088591255,0.024747046,0.009315674,0.009201264,-0.08002992,0.0508748,0.074717,-2.6536067,-0.029890705,0.015983356,0.00093220436,-0.12540592,49.952393,0.86484915,0.16549434,0.3354002,0.10865393,0.08899189,inf,inf,inf,inf,1,1,1,1,2,0,2,1,2,1,1,0,0
32004000,32004000,5503000,40.1540302,116.2594857,-0.22876364,0.058552574,-0.72259325,-2.6004005e-07,0.00044767096,0.0,-0.065796115,0.010249275,0.0048992205,0.0014868508,-0.08002992,0.0508748,0.074717,-2.2206526,-0.017942807,-0.018088145,0.0010095882,-0.12540592,49.952393,0.86500186,0.16488415,0.3355146,0.10803858,0.08880667,inf,inf,inf,inf,1,1,1,1,2,0,2,1,2,1,1,0,0
32504000,32504000,5503000,40.1540302,116.2594857,-0.390252,0.04503972,-0.68516535,-2.6004005e-07,0.00044767096,0.0,-0.05296007,-0.0007954143,0.012925331,0.038106807,-0.08002992,0.0508748,0.074717,-1.5059314,0.016312597,-0.087977946,0.0006860341,-0.12540592,49.952393,0.82757396,0.16491604,0.3346266,0.10776122,0.08871797,inf,inf,inf,inf,1,1,1,1,2,0,2,1,2,1,1,0,0
33008000,33008000,5503000,40.1540302,116.2594857,-0.3902775,0.059420772,-0.659744,-2.6004005e-07,0.00044767096,0.0,-0.06188413,0.009378619,0.009261518,0.040700484,-0.08002992,0.0508748,0.074717,0.2867106,-0.0075129666,-0.037271943,0.0007814998,-0.12540592,49.952393,0.80215263,0.16486478,0.33378386,0.1073028,0.08864811,inf,inf,inf,inf,1,1,1,1,2,0,2,1,2,1,1,0,0
33503000,33503000,5503000,40.1540302,116.2594857,-0.37948322,0.08354516,-0.6418404,-2.6004005e-07,0.00044767096,0.0,0.015194586,0.011626942,0.005125207,0.033564735,-0.08002992,0.0508748,0.074717,1.1411852,-0.025883436,-0.018942356,0.00090147805,-0.12540592,49.952393,0.784249,0.16485012,0.3344737,0.10685481,0.088703625,inf,inf,inf,inf,1,1,1,1,2,0,2,1,2,1,1,0,0
33992000,33992000,5503000,40.1540302,116.2594857,-0.34510964,0.10350762,-0.6514632,-2.6004005e-07,0.00044767096,0.0,0.13209173,0.008314946,-0.0019553383,0.004114859,-0.08002992,0.0508748,0.074717,-2.7960627,-0.036546305,0.06386544,0.0011074081,-0.12540592,49.952393,0.7938718,0.16995338,0.33570933,0.11046497,0.08996963,inf,inf,inf,inf,1,1,1,1,2,0,2,1,2,1,1,0,0
34495000,34495000,5503000,40.1540302,116.2594857,-0.28987345,0.09507857,-0.6543619,-2.6004005e-07,0.00044767096,0.0,-0.10427129,-0.0091576,0.0056516747,0.009500314,-0.08002992,0.0508748,0.074717,0.41426364,-0.0077670687,0.0008918345,0.0013034656,-0.12540592,49.952393,0.7967705,0.16994901,0.33492336,0.109540105,0.08992109,inf,inf,inf,inf,1,1,1,1,2,0,2,1,2,1,1,0,0
35000000,35000000,5503000,40.1540302,116.2594857,-0.22300184,0.08139313,-0.6423813,-2.6004005e-07,0.00044767096,0.0,-0.02238062,-0.012226194,0.0015692638,0.011812281,-0.08002992,0.0508748,0.074717,-0.50459194,0.0040522697,-0.06487313,0.0016155955,-0.12540592,49.952393,0.7847899,0.1705429,0.33616588,0.10920249,0.09017255,inf,inf,inf,inf,1,1,1,1,2,0,2,1,2,1,1,0,0
35498000,35498000,5503000,40.1540302,116.2594857,-0.10748519,0.053209044,-0.62284744,-2.6004005e-07,0.00044767096,0.0,-0.09385478,-0.02272412,0.009097276,0.028660087,-0.08002992,0.0508748,0.074717,-1.8429365,0.019434795,0.0011220574,0.0017873631,-0.12540592,49.952393,0.76525605,0.17031161,0.33535737,0.10851096,0.09008112,inf,inf,inf,inf,1,1,1,1,2,0,2,1,2,1,1,0,0
36000000,36000000,5503000,40.1540302,116.2594857,-0.029264936,0.040672038,-0.6679277,-2.6004005e-07,0.00044767096,0.0,-0.0062288903,-0.012632858,-0.002599412,-0.027822766,-0.08002992,0.0508748,0.074717,-1.0908283,0.0030497476,0.08702743,0.0019169066,-0.12540592,49.952393,0.8103363,0.16993763,0.33457887,0.107929535,0.08996786,inf,inf,inf,inf,1,1,1,1,2,0,2,1,2,1,1,0,0
36504000,36504000,5503000,40.1540302,116.2594857,0.07932566,0.022410812,-0.7353865,-2.6004005e-07,0.00044767096,0.0,0.020102063,-0.0125785945,-0.004614323,-0.06832539,-0.08002992,0.0508748,0.074717,-0.74271834,0.021325285,0.09106099,0.0021882637,-0.12540592,49.952393,0.8777951,0.16996086,0.3358175,0.106825046,0.09011653,inf,inf,inf,inf,1,1,1,1,2,0,2,1,2,1,1,0,0
36998000,36998000,5503000,40.1540302,116.2594857,0.1997609,0.026455356,-0.73669624,-2.6004005e-07,0.00044767096,0.0,0.017275292,-0.0027301284,0.0073416736,-0.02679149,-0.08002992,0.0508748,0.074717,-0.21922663,-0.009711687,-0.012815929,0.0024745562,-0.12540592,49.952393,0.87910485,0.16997424,0.33552676,0.106524624,0.09012855,inf,inf,inf,inf,1,1,1,1,2,0,2,1,2,1,1,0,0
37491000,37491000,5503000,40.1540302,116.2594857,0.27462626,0.020249475,-0.7252746,-2.6004005e-07,0.00044767096,0.0,-0.03743873,-0.007280135,0.0056238645,-0.007355972,-0.08002992,0.0508748,0.074717,-1.8445531,-0.0050596227,0.0010888492,0.0028556592,-0.12540592,49.952393,0.86768323,0.16769627,0.3352403,0.10529234,0.08961413,inf,inf,inf,inf,1,1,1,1,2,0,2,1,2,1,1,0,0
37996000,37996000,5503000,40.1540302,116.2594857,0.29875508,0.0043367487,-0.7246332,-2.6004005e-07,0.00044767096,0.0,-0.21867406,-0.008741563,-0.00074894435,-0.01126133,-0.08002992,0.0508748,0.074717,-3.7065227,-0.0007636917,-0.03567617,0.003251129,-0.12540592,49.952393,0.8670418,0.1671614,0.3344295,0.10533799,0.08944275,inf,inf,inf,inf,1,1,1,1,2,0,2,1,2,1,1,0,0
38500000,38500000,5503000,40.1540302,116.2594857,0.33482143,-0.027262092,-0.7051509,-2.6004005e-07,0.00044767096,0.0,0.015472379,-0.018651411,0.0061484026,0.01584598,-0.08002992,0.0508748,0.074717,4.7729163,0.050632067,0.01584552,0.0039401515,-0.12540592,49.952393,0.8475595,0.16672009,0.33517748,0.10479129,0.08942286,inf,inf,inf,inf,1,1,1,1,2,0,2,1,2,1,1,0,0
39003000,39003000,5503000,40.1540302,116.2594857,0.49616072,-0.058304016,-0.7175,-2.6004005e-07,0.00044767096,0.0,0.042377647,-0.015811557,-0.0005640538,-0.0076362416,-0.08002992,0.0508748,0.074717,-1.123281,0.033610545,0.061371922,0.0042426907,-0.12540592,49.952393,0.8599086,0.1673717,0.33534563,0.10418432,0.089569844,inf,inf,inf,inf,1,1,1,1,2,0,2,1,2,1,1,0,0
39496000,39496000,5503000,40.1540302,116.2594857,0.6117682,-0.07644438,-0.72402537,-2.6004005e-07,0.00044767096,0.0,0.13972881,-0.011495027,0.002999054,-0.002473747,-0.08002992,0.0508748,0.074717,1.018409,0.035447765,-0.07085036,0.004095413,-0.12540592,49.952393,0.866434,0.16721992,0.33497855,0.103977814,0.08951534,inf,inf,inf,inf,1,1,1,1,2,0,2,1,2,1,1,0,0
39996000,39996000,5503000,40.1540302,116.2594857,0.638251,-0.07129971,-0.7414124,-2.6004005e-07,0.00044767096,0.0,0.04927399,0.0012360001,-0.0012759254,-0.018617056,-0.08002992,0.0508748,0.074717,-2.1054504,0.0049332418,0.043813553,0.0035617906,-0.12540592,49.952393,0.883821,0.16678496,0.33606178,0.10328314,0.08950762,inf,inf,inf,inf,1,1,1,1,2,0,2,1,2,1,1,0,0
40503000,40503000,5503000,40.1540302,116.2594857,0.5838765,-0.050010204,-0.7172549,-2.6004005e-07,0.00044767096,0.0,-0.0379475,0.021638485,0.13171548,0.13582434,-0.08002992,0.0508748,0.074717,1.6510023,0.1839267,1.571437,0.03502649,-0.12540592,49.952393,0.8596635,0.16592185,0.33508873,0.103280395,0.08922276,inf,inf,inf,inf,1,1,1,1,2,0,2,1,2,1,1,0,0
40998000,40998000,5503000,40.1540302,116.2594857,0.57174176,-0.04360897,-0.41899136,-2.6004005e-07,0.00044767096,0.0,0.098724656,-0.022442326,0.7251665,0.75387007,-0.08002992,0.0508748,0.074717,0.6412441,-0.011837752,-0.40263772,0.052384246,-0.12540592,49.952393,0.56139994,0.16466314,0.33517587,0.10045842,0.08892608,inf,inf,inf,inf,1,1,1,1,2,0,2,1,2,1,1,0,0
41500000,41500000,5503000,40.1540302,116.2594857,0.5373161,-0.061312135,-0.103540614,-2.6004005e-07,0.00044767096,0.0,0.043552503,-0.0099057425,0.5836413,0.6056016,-0.08002992,0.0508748,0.074717,-0.5552383,0.06880365,0.17365143,-0.0042757834,-0.12540592,49.952393,0.24594921,0.17029633,0.33573213,0.106115125,0.0903201,inf,inf,inf,inf,1,1,1,1,2,0,2,1,2,1,1,0,0
42000000,42000000,5503000,40.1540302,116.2594857,0.4757969,-0.060735002,-0.038240325,-2.6004005e-07,0.00044767096,0.0,0.004344501,-0.033329945,-0.21064183,-0.2177082,-0.08002992,0.0508748,0.074717,-0.87851906,-0.012277487,-1.5052844,-0.007869049,-0.12540592,49.952393,0.18064892,0.16962981,0.33595145,0.11069507,0.08771961,inf,inf,inf,inf,1,1,1,1,2,0,2,1,2,1,1,0,0
42503000,42503000,5503000,40.1540302,116.2594857,0.47023687,-0.053942367,-0.004372978,-2.6004005e-07,0.00044767096,0.0,0.064059824,-0.0288592,-0.027068622,-0.0067164665,-0.08002992,0.0508748,0.074717,1.1545141,-0.018027425,-1.6186329,-0.0071593397,-0.12540592,49.952393,0.14678158,0.17077188,0.3354616,0.12625419,0.08370598,inf,inf,inf,inf,1,1,1,1,2,0,2,1,2,1,1,0,0
43004000,43004000,5503000,40.1540302,116.2594857,0.47931135,-0.048168123,-0.0096620945,-2.6004005e-07,0.00044767096,0.0,0.049698006,-0.023276772,0.044980228,0.049169563,-0.08002992,0.0508748,0.074717,-0.8913669,0.003173767,1.5925884,-0.0070960256,-0.12540592,49.952393,0.15207069,0.16996163,0.3350013,0.13338965,0.081654966,inf,inf,inf,inf,1,1,1,1,2,0,2,1,2,1,1,0,0
43503000,43503000,5503000,40.1540302,116.2594857,0.41606697,-0.03963929,0.011073524,-2.6004005e-07,0.00044767096,0.0,-0.24950624,-0.014756308,0.02135748,0.032352533,-0.08002992,0.0508748,0.074717,-0.5324734,-0.00027372423,-0.056032088,-0.0071567283,-0.12540592,49.952393,0.1,0.17068586,0.33389255,0.1298354,0.08118561,inf,inf,inf,inf,1,1,1,1,2,0,2,1,2,1,1,1,0
44001000,44001000,5503000,40.1540302,116.2594857,0.39173815,-0.019998292,-0.006582042,-2.6004005e-07,0.00044767096,0.0,-0.082632534,-2.5637768e-05,0.0023964557,-0.008337232,-0.08002992,0.0508748,0.074717,-0.20269617,0.004888296,-0.0036103386,-0.007191457,-0.12540592,49.952393,0.1,0.17096561,0.3342264,0.12453696,0.08172881,inf,inf,inf,inf,1,1,1,1,2,0,2,1,2,1,1,1,0
44500000,44500000,5503000,40.1540302,116.2594857,0.41094974,-0.017675828,0.007825677,-2.6004005e-07,0.00044767096,0.0,-0.06596503,-0.0033743323,0.006941418,0.012106412,-0.08002992,0.0508748,0.074717,1.7428428,-0.014641821,-0.0038705766,-0.0071366206,-0.12540592,49.952393,0.1075676,0.17070346,0.3330223,0.12106492,0.08263213,inf,inf,inf,inf,1,1,1,1,2,0,2,1,2,1,1,1,0
44992000,44992000,5503000,40.1540302,116.2594857,0.46766844,-0.0056390706,0.020389121,-2.6004005e-07,0.00044767096,0.0,0.21848445,0.0041619893,0.008622726,0.014980241,-0.08002992,0.0508748,0.074717,0.7039396,-0.0028340018,-0.006122514,-0.0071195234,-0.12540592,49.952393,0.1,0.17152318,0.3341953,0.1178844,0.0841763,inf,inf,inf,inf,1,1,1,1,2,0,2,1,2,1,1,1,0
45494000,45494000,5503000,40.1540302,116.2594857,0.5194204,0.015992332,0.005429232,-2.6004005e-07,0.00044767096,0.0,0.33205783,0.018203413,-0.000733813,-0.006299705,-0.08002992,0.0508748,0.074717,-0.43307137,0.011135405,0.0014733523,-0.007037283,-0.12540592,49.952393,0.10958351,0.16912082,0.33210918,0.11515432,0.084847316,inf,inf,inf,inf,1,1,1,1,2,0,2,1,2,1,1,1,0
46000000,46000000,5503000,40.1540302,116.2594857,0.48223215,0.021538205,0.027402373,-2.6004005e-07,0.00044767096,0.0,0.1219875,0.018114243,0.0076862155,0.020486167,-0.08002992,0.0508748,0.074717,-4.477762,0.037473228,0.040188428,-0.0071097463,-0.12540592,49.952393,0.109836936,0.16911785,0.33295196,0.1127348,0.08610779,inf,inf,inf,inf,1,1,1,1,2,0,2,1,2,1,1,1,0
