timestamp,timestamp_sample,ref_timestamp,ref_lat,ref_lon,x,y,z,delta_xy[0],delta_xy[1],delta_z,vx,vy,vz,z_deriv,delta_vxy[0],delta_vxy[1],delta_vz,ax,ay,az,heading,delta_heading,ref_alt,dist_bottom,eph,epv,evh,evv,vxy_max,vz_max,hagl_min,hagl_max,xy_valid,z_valid,v_xy_valid,v_z_valid,xy_reset_counter,z_reset_counter,vxy_reset_counter,vz_reset_counter,heading_reset_counter,xy_global,z_global,dist_bottom_valid,dist_bottom_sensor_bitfield
564000,564000,0,nan,nan,6.9173026e-08,-8.677781e-07,7.379635e-07,0.0,0.0,0.0,3.376659e-05,-0.00035649922,0.00040822482,0.0004051392,1.0274816e-06,-9.698089e-05,0.0,0.008540195,-0.068632,0.109761015,0.119766206,0.11977728,nan,0.1,0.70622146,3.5000029,7.071068,0.45001808,inf,inf,inf,inf,0,1,0,1,1,0,1,0,1,0,0,1,2
1000000,1000000,0,nan,nan,0.0007695212,-0.00022811463,-0.029227441,0.0,0.0,0.0,0.0006210072,-0.0012381397,0.0126799485,-0.014034003,1.0274816e-06,-9.698089e-05,0.0,0.039272044,0.10185829,0.07246993,0.11946519,0.11977728,nan,0.1,0.6395818,1.169262,2.807807,0.45549607,inf,inf,inf,inf,0,1,0,1,1,0,1,0,1,0,0,1,2
1500000,1500000,0,nan,nan,0.0017110497,1.8128176e-06,-0.040361557,0.0,0.0,0.0,0.0049623502,-0.0001508759,0.012469314,-0.014813249,1.0274816e-06,-9.698089e-05,0.0,-0.011827806,-0.00975865,0.073340714,0.11972985,0.11977728,nan,0.1,0.6631474,0.8282276,1.4329885,0.47696277,inf,inf,inf,inf,0,1,0,1,1,0,1,0,1,0,0,1,2
1992000,1992000,0,nan,nan,0.0031534666,0.0012745545,-0.040881783,0.0,0.0,0.0,0.005647804,0.004983118,0.011137702,-0.009477092,1.0274816e-06,-9.698089e-05,0.0,0.0117781395,0.08128112,0.024607403,0.11973202,0.11977728,nan,0.10040146,0.6758768,0.7397699,1.4812503,0.5069065,inf,inf,inf,inf,0,1,0,1,1,0,1,0,1,0,0,1,2
2488000,2488000,0,nan,nan,0.00060958666,0.003057455,-0.042570654,0.0,0.0,0.0,-0.005431029,0.009118357,0.0060725925,-0.010730653,1.0274816e-06,-9.698089e-05,0.0,-0.017113892,0.052829675,-0.037729736,0.11941168,0.11977728,nan,0.1,0.55314434,0.71975607,1.4014004,0.53225607,inf,inf,inf,inf,0,1,0,1,1,0,1,0,1,0,0,1,2
3000000,3000000,0,nan,nan,-0.003576877,0.0033579532,-0.042814564,0.0,0.0,0.0,-0.006864175,0.005213806,0.010318457,-0.0028854846,1.0274816e-06,-9.698089e-05,0.0,0.0020154454,0.0031105487,0.020567326,0.11957009,0.11977728,nan,0.10103945,0.6623464,0.7558949,1.469911,0.55156004,inf,inf,inf,inf,0,1,0,1,1,0,1,0,1,0,0,1,2
3500000,3500000,0,nan,nan,-0.0027490526,0.0009345774,-0.0411646,0.0,0.0,0.0,-0.004413179,0.00016042986,0.011767828,0.0008469771,1.0274816e-06,-9.698089e-05,0.0,0.043472838,0.04331461,0.02527423,0.11949231,0.11977728,nan,0.1,0.5227882,0.7781536,1.1238602,0.5491037,inf,inf,inf,inf,0,1,0,1,1,0,1,0,1,0,0,1,2
4000000,4000000,0,nan,nan,-0.0010937029,-0.0017640087,-0.043011144,0.0,0.0,0.0,-0.00052744796,-0.0014970234,0.0032931578,-0.0067545786,1.0274816e-06,-9.698089e-05,0.0,-0.033057872,-0.016995747,0.05506258,0.11948756,0.11977728,nan,0.10176401,0.5945523,0.81097704,1.1477505,0.54228806,inf,inf,inf,inf,0,1,0,1,1,0,1,0,1,0,0,1,2
4500000,4500000,0,nan,nan,0.00066808704,-0.0020753446,-0.043384694,0.0,0.0,0.0,0.00037252693,-0.0050068134,0.0072577125,-0.0011466306,1.0274816e-06,-9.698089e-05,0.0,-0.0098817125,0.08956663,0.05315989,0.11930501,0.11977728,nan,0.1,0.6675494,0.81047505,1.1703106,0.5187966,inf,inf,inf,inf,0,1,0,1,1,0,1,0,1,0,0,1,2
5000000,5000000,0,nan,nan,0.0026033188,-0.0024367273,-0.04560965,0.0,0.0,0.0,0.008123098,-0.005877153,0.0059280945,-0.0028410011,1.0274816e-06,-9.698089e-05,0.0,-0.009986678,-0.0024382218,-0.014924443,0.11938075,0.11977728,nan,0.1,0.5383103,0.8212793,0.93999743,0.5010809,inf,inf,inf,inf,0,1,0,1,1,0,1,0,1,0,0,1,2
5500000,5500000,0,nan,nan,0.003460021,-0.0022274854,-0.048337165,0.0,0.0,0.0,0.00882085,-0.0034558293,0.0105267735,0.0010022514,1.0274816e-06,-9.698089e-05,0.0,-0.009172612,0.018497348,-0.012144445,0.11930993,0.11977728,nan,0.10124781,0.59656405,0.805337,0.94163835,0.47444782,inf,inf,inf,inf,0,1,0,1,1,0,1,0,1,0,0,1,2
5988000,5988000,5508000,28.1429579,112.983711,0.003970371,-0.003716883,-0.045619193,0.0,0.0,0.0,0.003990089,-0.010515747,0.013730169,0.0058053327,1.0274816e-06,-9.698089e-05,0.0,-0.019948533,-0.034500394,-0.10330509,0.119334675,0.11977728,50.838913,0.10093565,0.48367068,0.8024215,0.7503831,0.45526406,inf,inf,inf,inf,0,1,0,1,1,0,1,0,1,1,1,1,0
6496000,6496000,5508000,28.1429579,112.983711,-0.00031411092,-0.005794811,-0.039995,0.0,0.0,0.0,-0.0066211354,-0.011557241,0.016875079,0.010203631,1.0274816e-06,-9.698089e-05,0.0,-0.0058765104,0.01907622,0.015465542,0.11923633,0.11977728,50.838913,0.1,0.5226578,0.7818727,0.7373994,0.43050796,inf,inf,inf,inf,0,1,0,1,1,0,1,0,1,1,1,1,0
7000000,7000000,5508000,28.1429579,112.983711,-0.006954813,-0.006565493,-0.03648437,0.0,0.0,0.0,-0.01961869,-0.010048706,0.015592957,0.00704951,1.0274816e-06,-9.698089e-05,0.0,-0.09042394,0.047683697,0.048896294,0.051048175,-0.069200575,50.838913,0.1,0.5417518,0.7848996,0.58746344,0.41569728,inf,inf,inf,inf,0,1,0,1,1,0,1,0,2,1,1,1,0
7488000,7488000,5508000,28.1429579,112.983711,-0.011157881,-0.004737832,-0.032292333,0.0,0.0,0.0,-0.019091444,-0.002163756,0.019353092,0.011119812,1.0274816e-06,-9.698089e-05,0.0,-0.09427264,0.05375286,0.07302034,0.050982114,-0.069200575,50.838913,0.1,0.4345425,0.7616927,0.526929,0.3925688,inf,inf,inf,inf,0,1,0,1,1,0,1,0,2,1,1,1,0
8000000,8000000,5508000,28.1429579,112.983711,-0.013196083,-0.0007415051,-0.030776061,0.0,0.0,0.0,-0.022142287,0.0033159826,0.019217705,0.007967984,1.0274816e-06,-9.698089e-05,0.0,-0.0004325393,0.033212308,0.004530884,0.049830385,-0.069200575,50.838913,0.1,0.47666708,0.76321095,0.6184275,0.37842464,inf,inf,inf,inf,0,1,0,1,1,0,1,0,2,1,1,1,0
8500000,8500000,5508000,28.1429579,112.983711,-0.014649138,0.003507832,-0.032982685,0.0,0.0,0.0,-0.024657631,0.007368634,0.006854261,-0.006149381,1.0274816e-06,-9.698089e-05,0.0,-0.044237252,0.063063316,-0.102197744,0.049947884,-0.069200575,50.838913,0.1,0.43446755,0.7441261,0.5789431,0.35802168,inf,inf,inf,inf,0,1,0,1,1,0,1,0,2,1,1,1,0
9001000,9001000,5508000,28.1429579,112.983711,-0.014381016,0.0047515836,-0.038606845,0.0,0.0,0.0,-0.019714193,0.0057420237,0.008410376,-0.00603015,1.0274816e-06,-9.698089e-05,0.0,0.0052136965,0.0063036475,-0.053026527,0.049945865,-0.069200575,50.838913,0.1,0.47456208,0.7263827,0.55612665,0.33891323,inf,inf,inf,inf,0,1,0,1,1,0,1,0,2,1,1,1,0
9488000,9488000,5508000,28.1429579,112.983711,-0.011516648,0.0033801703,-0.043132775,0.0,0.0,0.0,-0.014802098,0.0006623707,0.0013031423,-0.011787401,1.0274816e-06,-9.698089e-05,0.0,-0.059172194,-0.002949446,0.07088761,0.05000118,-0.069200575,50.838913,0.10125323,0.49794197,0.72157925,0.5089958,0.32495773,inf,inf,inf,inf,0,1,0,1,1,0,1,0,2,1,1,1,0
10000000,10000000,5508000,28.1429579,112.983711,-0.007182904,0.00022543449,-0.045376435,0.0,0.0,0.0,-0.006335407,-0.0029962063,-0.00017951155,-0.010407555,1.0274816e-06,-9.698089e-05,0.0,-0.0046415795,-0.03880581,-0.022138467,0.049786482,-0.069200575,50.838913,0.10064253,0.42571676,0.7211256,0.40049976,0.31239852,inf,inf,inf,inf,0,1,0,1,1,0,1,0,2,1,1,1,0
10504000,10504000,5508000,28.1429579,112.983711,0.056263786,0.02441717,-0.041720103,0.061671816,0.029791044,0.0,0.009625374,-0.003935166,0.0120146945,-0.003445725,0.0076139756,0.013111351,0.039556198,-0.03557581,0.056269977,0.06883032,0.04974017,-0.069200575,50.838913,0.1,0.2591195,0.6163742,0.17987351,0.15851553,inf,inf,inf,inf,1,1,1,1,2,0,2,1,2,1,1,1,0
10988000,10988000,5508000,28.1429579,112.983711,0.040762033,0.019905172,-0.046405397,0.061671816,0.029791044,0.0,0.005677205,6.1517465e-05,0.0020761709,-0.009024576,0.0076139756,0.013111351,0.039556198,0.07118451,0.0031917908,0.025026498,0.05053836,-0.069200575,50.838913,0.10559035,0.21137078,0.55184656,0.17207938,0.1285501,inf,inf,inf,inf,1,1,1,1,2,0,2,1,2,1,1,1,0
11500000,11500000,5508000,28.1429579,112.983711,0.032765996,0.013861644,-0.038886197,0.061671816,0.029791044,0.0,-0.007880828,-0.0017532002,0.007153887,0.005490698,0.0076139756,0.013111351,0.039556198,0.013808182,-0.03866801,-0.009898095,0.051072154,-0.069200575,50.838913,0.10475358,0.19171119,0.5022305,0.18225993,0.11485391,inf,inf,inf,inf,1,1,1,1,2,0,2,1,2,1,1,1,0
11988000,11988000,5508000,28.1429579,112.983711,0.029887633,0.011856872,-0.029587112,0.061671816,0.029791044,0.0,-0.00023591449,-0.0013817076,0.0073261843,0.008770283,0.0076139756,0.013111351,0.039556198,0.012979008,0.0013930413,-0.036237758,0.050716445,-0.069200575,50.838913,0.1,0.1813083,0.4696721,0.17738861,0.1080931,inf,inf,inf,inf,1,1,1,1,2,0,2,1,2,1,1,1,0
12488000,12488000,5508000,28.1429579,112.983711,0.023588018,0.0017400862,-0.041910052,0.061671816,0.029791044,0.0,-0.00096852984,-0.0071690725,0.003882524,-0.007403863,0.0076139756,0.013111351,0.039556198,-0.013051854,-0.0881088,0.022843478,0.050594393,-0.069200575,50.838913,0.1,0.17625354,0.44165847,0.16983011,0.10506555,inf,inf,inf,inf,1,1,1,1,2,0,2,1,2,1,1,1,0
12988000,12988000,5508000,28.1429579,112.983711,0.021997392,0.0036353488,-0.04478785,0.061671816,0.029791044,0.0,0.006365214,0.0017317344,-0.005838759,-0.01405907,0.0076139756,0.013111351,0.039556198,0.013352325,0.033035778,-0.023646278,0.050275505,-0.069200575,50.838913,0.10353746,0.17378378,0.42013213,0.16349138,0.10394927,inf,inf,inf,inf,1,1,1,1,2,0,2,1,2,1,1,1,0
13500000,13500000,5508000,28.1429579,112.983711,0.020020401,0.0066322316,-0.05621002,0.061671816,0.029791044,0.0,0.011611539,0.005546873,-0.018718155,-0.028119238,0.0076139756,0.013111351,0.039556198,0.05209864,-0.029436734,0.030235386,0.050982483,-0.069200575,50.838913,0.10840331,0.17302279,0.4064962,0.15713473,0.10405819,inf,inf,inf,inf,1,1,1,1,2,0,2,1,2,1,1,1,0
14000000,14000000,5508000,28.1429579,112.983711,0.013757094,0.007178147,-0.046978246,0.061671816,0.029791044,0.0,0.010573719,0.0010705666,-0.0025960107,0.0012475766,0.0076139756,0.013111351,0.039556198,0.06621316,-0.0352716,0.07867999,0.051084265,-0.069200575,50.838913,0.1,0.17185254,0.39274958,0.15176558,0.10373666,inf,inf,inf,inf,1,1,1,1,2,0,2,1,2,1,1,1,0
14460000,14460000,5508000,28.1429579,112.983711,0.006964261,-0.002741658,-0.05910288,0.061671816,0.029791044,0.0,0.001340137,-0.007018324,-0.014728353,-0.01989971,0.0076139756,0.013111351,0.039556198,0.00021722051,-0.030165425,0.025195068,0.050969522,-0.069200575,50.838913,0.101241305,0.17676428,0.38482842,0.15483135,0.10504558,inf,inf,inf,inf,1,1,1,1,2,0,2,1,2,1,1,1,0
15001000,15001000,5508000,28.1429579,112.983711,0.012115391,0.0070882253,-0.068764545,0.061671816,0.029791044,0.0,0.006890112,0.0030512828,-0.01839268,-0.022539975,0.0076139756,0.013111351,0.039556198,0.01829907,-0.05615128,0.15264377,0.051923607,-0.069200575,50.838913,0.10032333,0.17096639,0.377124,0.14417762,0.09473578,inf,inf,inf,inf,1,1,1,1,2,0,2,1,2,1,1,1,0
15488000,15488000,5508000,28.1429579,112.983711,0.018081509,0.013987661,-0.08145006,0.061671816,0.029791044,0.0,0.01122138,0.007744271,-0.030783283,-0.033162486,0.0076139756,0.013111351,0.039556198,0.07812878,-0.03368992,0.05775783,0.051699806,-0.069200575,50.838913,0.10902999,0.16981909,0.3689253,0.14071609,0.089029275,inf,inf,inf,inf,1,1,1,1,2,0,2,1,2,1,1,1,0
16000000,16000000,5508000,28.1429579,112.983711,0.041935176,0.017497992,-0.084609665,0.061671816,0.029791044,0.0,0.031923488,0.0026185145,-0.029879846,-0.021097582,0.0076139756,0.013111351,0.039556198,0.025485674,0.02493822,-0.07174722,0.051461197,-0.069200575,50.838913,0.114541635,0.17044397,0.3628164,0.13965213,0.08769132,inf,inf,inf,inf,1,1,1,1,2,0,2,1,2,1,1,1,0
16496000,16496000,5508000,28.1429579,112.983711,0.058148216,0.0061489814,-0.07695656,0.061671816,0.029791044,0.0,0.041986078,-0.003916577,-0.025487177,-0.004921952,0.0076139756,0.013111351,0.039556198,-0.06483181,-0.042485073,-0.085613556,0.05178706,-0.069200575,50.838913,0.10600962,0.16896899,0.35807735,0.1371944,0.08546263,inf,inf,inf,inf,1,1,1,1,2,0,2,1,2,1,1,1,0
17000000,17000000,5508000,28.1429579,112.983711,0.043384183,0.009320776,-0.076096766,0.061671816,0.029791044,0.0,0.01910473,0.010791823,-0.024503624,-0.0033499652,0.0076139756,0.013111351,0.039556198,-0.03790985,0.05749394,-0.15694927,0.052134443,-0.069200575,50.838913,0.10412203,0.17043224,0.35554165,0.13441792,0.0821075,inf,inf,inf,inf,1,1,1,1,2,0,2,1,2,1,1,1,0
17500000,17500000,5508000,28.1429579,112.983711,0.024224792,0.019111712,-0.0825545,0.061671816,0.029791044,0.0,0.0034873742,0.016635032,-0.02541514,-0.009196373,0.0076139756,0.013111351,0.039556198,-0.02563161,0.013281411,0.03891531,0.052406944,-0.069200575,50.838913,0.10571513,0.17004715,0.3508129,0.13214152,0.082085036,inf,inf,inf,inf,1,1,1,1,2,0,2,1,2,1,1,1,0
18001000,18001000,5508000,28.1429579,112.983711,0.015673073,0.016703013,-0.090160854,0.061671816,0.029791044,0.0,-0.000847271,0.0118842535,-0.020572426,-0.008233496,0.0076139756,0.013111351,0.039556198,0.028916314,0.04174455,0.009170175,0.052599333,-0.069200575,50.838913,0.105012365,0.16980897,0.34834805,0.12985069,0.084345706,inf,inf,inf,inf,1,1,1,1,2,0,2,1,2,1,1,1,0
18501000,18488000,5508000,28.1429579,112.983711,0.013820115,0.007989511,-0.083606586,0.061671816,0.029791044,0.0,-0.009082536,0.0073314933,-0.010319036,0.0069967685,0.0076139756,0.013111351,0.039556198,-0.004311489,-0.013305031,0.023721715,0.05243088,-0.069200575,50.838913,0.108729266,0.1688041,0.3458835,0.12684977,0.0872513,inf,inf,inf,inf,1,1,1,1,2,0,2,1,2,1,1,1,0
19000000,18984000,5508000,28.1429579,112.983711,0.0063418876,0.016906366,-0.08132757,0.061671816,0.029791044,0.0,-0.014793758,0.021661641,-0.0066554258,0.00812666,0.0076139756,0.013111351,0.039556198,-0.004141916,-0.027443344,0.07661245,0.053104684,-0.069200575,50.838913,0.100933425,0.16798973,0.34222406,0.124258116,0.09007711,inf,inf,inf,inf,1,1,1,1,2,0,2,1,2,1,1,1,0
19488000,19473000,5508000,28.1429579,112.983711,-0.005010064,0.02606186,-0.07472784,0.061671816,0.029791044,0.0,-0.022667967,0.02592965,-0.0018098443,0.014791606,0.0076139756,0.013111351,0.039556198,-0.040178187,0.011338725,0.09747967,0.052671574,-0.069200575,50.838913,0.1,0.16705339,0.3406405,0.12180144,0.09243505,inf,inf,inf,inf,1,1,1,1,2,0,2,1,2,1,1,1,0
20000000,19984000,5508000,28.1429579,112.983711,-0.0013167788,0.023677964,-0.07122223,0.061671816,0.029791044,0.0,-0.017182909,0.017096879,-0.0013478922,0.011526426,0.0076139756,0.013111351,0.039556198,-0.0018472304,0.06866031,0.067504115,0.052654006,-0.069200575,50.838913,0.1,0.16765226,0.3387045,0.1205928,0.09448632,inf,inf,inf,inf,1,1,1,1,2,0,2,1,2,1,1,1,0
20497000,20497000,5508000,28.1429579,112.983711,0.008977241,0.017811958,-0.06655032,0.061671816,0.029791044,0.0,-0.008296619,0.008586052,0.0073983944,0.015177575,0.0076139756,0.013111351,0.039556198,0.016506536,0.03569901,-0.124149024,0.052553076,-0.069200575,50.838913,0.1,0.16662765,0.3378612,0.11847448,0.09532651,inf,inf,inf,inf,1,1,1,1,2,0,2,1,2,1,1,1,0
20992000,20992000,5508000,28.1429579,112.983711,0.017959844,0.011020645,-0.07833203,0.061671816,0.029791044,0.0,0.0054102046,0.0051476364,0.000923484,-0.004948632,0.0076139756,0.013111351,0.039556198,0.08054669,-0.07755016,-0.02100039,0.052366976,-0.069200575,50.838913,0.1,0.16777629,0.33705753,0.117608964,0.088615015,inf,inf,inf,inf,1,1,1,1,2,0,2,1,2,1,1,1,0
21496000,21496000,5508000,28.1429579,112.983711,0.017443188,0.0012184762,-0.08158532,0.061671816,0.029791044,0.0,0.0060402034,0.0008505475,-0.001385149,-0.007027192,0.0076139756,0.013111351,0.039556198,-0.018230135,-0.032791633,-0.052166168,0.0524931,-0.069200575,50.838913,0.1,0.16479115,0.3337534,0.11437801,0.08430839,inf,inf,inf,inf,1,1,1,1,2,0,2,1,2,1,1,1,0
21995000,21995000,5508000,28.1429579,112.983711,0.016776623,-0.011210702,-0.087545276,0.061671816,0.029791044,0.0,0.0057774354,-0.0051936745,-0.014014941,-0.019265097,0.0076139756,0.013111351,0.039556198,0.0061512496,-0.024577035,-0.0060545276,0.05201206,-0.069200575,50.838913,0.10293958,0.16557506,0.3339038,0.114598505,0.08112347,inf,inf,inf,inf,1,1,1,1,2,0,2,1,2,1,1,1,0
22500000,22500000,5508000,28.1429579,112.983711,0.018268576,-0.016422423,-0.08489572,0.061671816,0.029791044,0.0,0.0047100345,-0.011345788,-0.006915111,-0.003978881,0.0076139756,0.013111351,0.039556198,0.006726557,0.0053719454,0.10157562,0.051764727,-0.069200575,50.838913,0.10213932,0.17316538,0.33392796,0.11895499,0.079868436,inf,inf,inf,inf,1,1,1,1,2,0,2,1,2,1,1,1,0
22988000,22980000,5508000,28.1429579,112.983711,0.015660707,-0.014166027,-0.08434226,0.061671816,0.029791044,0.0,-0.003763254,-0.010991625,-0.0047954177,0.0005523893,0.0076139756,0.013111351,0.039556198,0.028187973,-0.031577136,0.08628237,0.05216933,-0.069200575,50.838913,0.10054419,0.17150612,0.33313,0.11699089,0.07949776,inf,inf,inf,inf,1,1,1,1,2,0,2,1,2,1,1,1,0
23489000,23481000,5508000,28.1429579,112.983711,0.011926953,-0.014678838,-0.09851591,0.061671816,0.029791044,0.0,-0.007096684,-0.009417359,-0.012168288,-0.018662516,0.0076139756,0.013111351,0.039556198,0.07414898,0.019625483,-0.010807998,0.052081607,-0.069200575,50.838913,0.1,0.17139572,0.33318946,0.11628852,0.08090365,inf,inf,inf,inf,1,1,1,1,2,0,2,1,2,1,1,1,0
23997000,23986000,5508000,28.1429579,112.983711,0.011096058,-0.006693267,-0.096904434,0.061671816,0.029791044,0.0,-0.005407583,-0.0062940423,-0.0063815955,-0.0028952223,0.0076139756,0.013111351,0.039556198,0.010640712,-0.041424237,0.06946641,0.05207453,-0.069200575,50.838913,0.10647663,0.17118046,0.33332446,0.11513707,0.083067335,inf,inf,inf,inf,1,1,1,1,2,0,2,1,2,1,1,1,0
24505000,24505000,5508000,28.1429579,112.983711,0.0061375,-0.008282164,-0.0916999,0.061671816,0.029791044,0.0,-0.0037191776,-0.01124212,-0.009609235,-0.0005065959,0.0076139756,0.013111351,0.039556198,0.009493204,-0.05481881,-0.13489276,0.05251009,-0.069200575,50.838913,0.10759178,0.17079347,0.33174908,0.11544819,0.08069331,inf,inf,inf,inf,1,1,1,1,2,0,2,1,2,1,1,1,0
24997000,24997000,5508000,28.1429579,112.983711,0.014978099,-0.007887335,-0.08768083,0.061671816,0.029791044,0.0,-0.0021554749,-0.012652342,0.002018959,0.010232106,0.0076139756,0.013111351,0.039556198,-0.045958076,-0.094636515,0.00706315,0.051689092,-0.069200575,50.838913,0.1,0.17125846,0.33242762,0.12161366,0.078494996,inf,inf,inf,inf,1,1,1,1,2,0,2,1,2,1,1,1,0
25498000,25498000,5508000,28.1429579,112.983711,0.019649519,-0.01255937,-0.09144805,0.061671816,0.029791044,0.0,0.002982418,-0.016233932,0.005662416,0.007112574,0.0076139756,0.013111351,0.039556198,0.023324547,-0.07351861,0.031370666,0.051723015,-0.069200575,50.838913,0.10155371,0.17163825,0.33154836,0.17233856,0.078459434,inf,inf,inf,inf,1,1,1,1,2,0,2,1,2,1,1,1,0
26006000,26006000,5508000,28.1429579,112.983711,0.021967378,-0.02221224,-0.076412804,0.061671816,0.029791044,0.0,0.011143606,-0.026378533,0.01992539,0.027177107,0.0076139756,0.013111351,0.039556198,-0.008716256,-0.06129142,-0.0068908553,0.051645458,-0.069200575,50.838913,0.1,0.17287086,0.33216298,0.18184671,0.07997892,inf,inf,inf,inf,1,1,1,1,2,0,2,1,2,1,1,1,0
26493000,26493000,5508000,28.1429579,112.983711,0.023207098,-0.026575193,-0.060353216,0.061671816,0.029791044,0.0,0.013313923,-0.022478685,0.02511676,0.03307187,0.0076139756,0.013111351,0.039556198,-0.008746279,-0.048137702,-0.036749054,0.0514651,-0.069200575,50.838913,0.1,0.17191787,0.33051878,0.16681455,0.081726655,inf,inf,inf,inf,1,1,1,1,2,0,2,1,2,1,1,1,0
26998000,26998000,5508000,28.1429579,112.983711,0.025996117,-0.030372944,-0.057906725,0.061671816,0.029791044,0.0,0.01350816,-0.024302376,0.034159392,0.029247805,0.0076139756,0.013111351,0.039556198,-0.0037912845,-0.039081994,0.034935154,0.05110211,-0.069200575,50.838913,0.1,0.17468572,0.3308435,0.15792373,0.084049836,inf,inf,inf,inf,1,1,1,1,2,0,2,1,2,1,1,1,0
27493000,27493000,5508000,28.1429579,112.983711,0.023815304,-0.02628891,-0.061051052,0.061671816,0.029791044,0.0,0.005823299,-0.013589598,0.02736635,0.011032166,0.0076139756,0.013111351,0.039556198,0.0044327923,0.068914115,-0.17416903,0.050232098,-0.069200575,50.838913,0.1,0.16588672,0.32778198,0.1195376,0.0799477,inf,inf,inf,inf,1,1,1,1,2,0,2,1,2,1,1,1,0
28006000,28006000,5508000,28.1429579,112.983711,0.021554023,-0.020525971,-0.061974287,0.061671816,0.029791044,0.0,0.008023185,-0.0058631618,0.022430578,0.0057917954,0.0076139756,0.013111351,0.039556198,-0.00604885,-0.025532873,-0.06723962,0.0501263,-0.069200575,50.838913,0.1,0.16773756,0.3278064,0.11929956,0.078049496,inf,inf,inf,inf,1,1,1,1,2,0,2,1,2,1,1,1,0
28502000,28502000,5508000,28.1429579,112.983711,0.026082365,-0.008091557,-0.0657202,0.061671816,0.029791044,0.0,0.009655667,-0.0026544086,0.005586429,-0.013648752,0.0076139756,0.013111351,0.039556198,-0.020047724,-0.09330416,-0.0219997,0.049868014,-0.069200575,50.838913,0.10307163,0.16760215,0.32879877,0.13107458,0.07807279,inf,inf,inf,inf,1,1,1,1,2,0,2,1,2,1,1,1,0
28998000,28998000,5508000,28.1429579,112.983711,0.029103301,0.00068637106,-0.0735169,0.061671816,0.029791044,0.0,0.02037595,0.0008383674,0.007084117,-0.011438969,0.0076139756,0.013111351,0.039556198,-0.004150237,0.0143851815,0.04802644,0.049899314,-0.069200575,50.838913,0.11086833,0.16832572,0.32870483,0.13808575,0.07939205,inf,inf,inf,inf,1,1,1,1,2,0,2,1,2,1,1,1,0
29493000,29493000,5508000,28.1429579,112.983711,0.027554868,8.502157e-06,-0.073024,0.061671816,0.029791044,0.0,0.019837415,-0.0010619194,0.00663469,-0.0055575687,0.0076139756,0.013111351,0.039556198,0.028783191,-0.051914234,0.05807515,0.049991343,-0.069200575,50.838913,0.11037543,0.17712522,0.33142224,0.14539978,0.08270743,inf,inf,inf,inf,1,1,1,1,2,0,2,1,2,1,1,1,0
29998000,29998000,5508000,28.1429579,112.983711,0.023971079,9.3477924e-05,-0.07059892,0.061671816,0.029791044,0.0,0.009328286,0.0010998019,0.016395822,0.007639081,0.0076139756,0.013111351,0.039556198,-0.038265258,0.007923891,0.15189405,0.0448916,-0.069200575,50.838913,0.10795035,0.17661512,0.33084112,0.13944456,0.0845964,inf,inf,inf,inf,1,1,1,1,2,0,2,1,2,1,1,0,0
30498000,30498000,5508000,28.1429579,112.983711,0.019696996,0.0093032075,-0.075562984,0.061671816,0.029791044,0.0,-0.0031567907,0.009879955,-0.0022601143,-0.0145173,0.0076139756,0.013111351,0.039556198,-0.039570015,-0.0441859,-0.028469598,0.017348414,-0.069200575,50.838913,0.11291441,0.17503929,0.3313706,0.13164368,0.08619744,inf,inf,inf,inf,1,1,1,1,2,0,2,1,2,1,1,0,0
30986000,30958000,5508000,28.1429579,112.983711,0.010015938,0.01707241,-0.12703748,0.061671816,0.029791044,0.0,-0.008222411,0.017004427,-0.1893606,-0.2035149,0.0076139756,0.013111351,0.039556198,0.02190456,0.010138854,-0.2652064,-0.011105569,-0.069200575,50.838913,0.16438891,0.17079669,0.33174506,0.12339401,0.0868325,inf,inf,inf,inf,1,1,1,1,2,0,2,1,2,1,1,0,0
31498000,31498000,5508000,28.1429579,112.983711,0.015039473,0.009964555,-0.23131216,0.061671816,0.029791044,0.0,0.004511257,-0.00089447165,-0.17434587,-0.18906878,0.0076139756,0.013111351,0.039556198,-0.021468703,-0.036086027,-0.053007156,-0.007352274,-0.069200575,50.838913,0.2686636,0.16555068,0.32802737,0.11565951,0.08649592,inf,inf,inf,inf,1,1,1,1,2,0,2,1,2,1,1,0,0
31998000,31998000,5508000,28.1429579,112.983711,0.0120423455,0.00013735538,-0.3440935,0.061671816,0.029791044,0.0,-0.0012003802,-0.0071514104,-0.22293127,-0.23547177,0.0076139756,0.013111351,0.039556198,0.051321518,0.018199963,0.018424353,-0.0028608348,-0.069200575,50.838913,0.38144493,0.16751155,0.3280776,0.11518991,0.08268116,inf,inf,inf,inf,1,1,1,1,2,0,2,1,2,1,1,0,0
32501000,32501000,5508000,28.1429579,112.983711,0.0028699234,-0.013858674,-0.44881707,0.061671816,0.029791044,0.0,0.0077745835,-0.0052793836,-0.21250096,-0.21511133,0.0076139756,0.013111351,0.039556198,0.05907652,-0.03170241,-0.051672567,-0.003968716,-0.069200575,50.838913,0.4861685,0.1702446,0.3292621,0.12500726,0.08026883,inf,inf,inf,inf,1,1,1,1,2,0,2,1,2,1,1,0,0
32994000,32966000,5508000,28.1429579,112.983711,-0.00076515065,-0.021402417,-0.54002285,0.061671816,0.029791044,0.0,0.013140526,0.004408507,-0.19236141,-0.19067417,0.0076139756,0.013111351,0.039556198,0.06252484,0.07366285,0.102500424,-0.0034620322,-0.069200575,50.838913,0.5773743,0.16693063,0.32976905,0.12911429,0.07893479,inf,inf,inf,inf,1,1,1,1,2,0,2,1,2,1,1,0,0
33493000,33469000,5508000,28.1429579,112.983711,-0.0073426133,-0.019097894,-0.6278655,0.061671816,0.029791044,0.0,0.015202535,0.020105548,-0.16064388,-0.15757506,0.0076139756,0.013111351,0.039556198,0.018341979,-0.0075086826,0.092853785,-0.0025041418,-0.069200575,50.838913,0.6652169,0.16783604,0.32940114,0.13264728,0.07925255,inf,inf,inf,inf,1,1,1,1,2,0,2,1,2,1,1,0,0
34002000,33974000,5508000,28.1429579,112.983711,-0.0015401151,-0.0027103038,-0.70264727,0.061671816,0.029791044,0.0,0.028637286,0.01858307,-0.13640474,-0.13374463,0.0076139756,0.013111351,0.039556198,0.06489688,-0.06557605,-0.05126651,-0.0022597078,-0.069200575,50.838913,0.7399987,0.1678601,0.3299734,0.1299993,0.08021491,inf,inf,inf,inf,1,1,1,1,2,0,2,1,2,1,1,0,0
34490000,34461000,5508000,28.1429579,112.983711,0.018011814,0.010795321,-0.76247257,0.061671816,0.029791044,0.0,0.030212384,0.007612356,-0.10756624,-0.1077132,0.0076139756,0.013111351,0.039556198,0.012196025,0.014897769,0.060766935,-0.0013872373,-0.069200575,50.838913,0.799824,0.16700652,0.3286727,0.124994025,0.081256166,inf,inf,inf,inf,1,1,1,1,2,0,2,1,2,1,1,0,0
34997000,34970000,5508000,28.1429579,112.983711,0.033973977,0.02428425,-0.7751075,0.061671816,0.029791044,0.0,0.020497127,0.002482156,0.12592132,0.13703682,0.0076139756,0.013111351,0.039556198,0.04322068,0.009611414,0.5327984,-0.001505072,-0.069200575,50.838913,0.81245893,0.17552555,0.33117387,0.12703635,0.084283836,inf,inf,inf,inf,1,1,1,1,2,0,2,1,2,1,1,0,0
35498000,35474000,5508000,28.1429579,112.983711,0.040193155,0.030181943,-0.70847005,0.061671816,0.029791044,0.0,0.0036111078,-0.0074750306,0.01837315,0.041778795,0.0076139756,0.013111351,0.039556198,0.021519702,0.0073383665,-0.124331556,-0.0014483419,-0.069200575,50.838913,0.7458215,0.17468749,0.33037388,0.122043796,0.085560784,inf,inf,inf,inf,1,1,1,1,2,0,2,1,2,1,1,0,0
35998000,35977000,5508000,28.1429579,112.983711,0.03062308,0.016746866,-0.7205651,0.061671816,0.029791044,0.0,-0.010901472,-0.019643676,0.0020029326,0.005439687,0.0076139756,0.013111351,0.039556198,-0.05605564,0.01778568,-0.10946074,-0.0013889215,-0.069200575,50.838913,0.7579165,0.17374861,0.3311238,0.11750206,0.086761005,inf,inf,inf,inf,1,1,1,1,2,0,2,1,2,1,1,0,0
36494000,36470000,5508000,28.1429579,112.983711,0.017062308,0.009402396,-0.7320676,0.061671816,0.029791044,0.0,-0.006997452,-0.00800184,0.00021316385,-0.0054610413,0.0076139756,0.013111351,0.039556198,-0.017385097,0.05469196,0.06251316,-0.000569556,-0.069200575,50.838913,0.769419,0.17282756,0.33046,0.11363298,0.087659135,inf,inf,inf,inf,1,1,1,1,2,0,2,1,2,1,1,0,0
37002000,36970000,5508000,28.1429579,112.983711,0.0054086074,0.0073018144,-0.7340645,0.061671816,0.029791044,0.0,0.0007696617,-0.002147962,-0.0054645985,-0.0073531456,0.0076139756,0.013111351,0.039556198,0.041245777,0.045514632,-0.028560868,-0.00074905244,-0.069200575,50.838913,0.77141595,0.17177185,0.33131132,0.11054846,0.088415205,inf,inf,inf,inf,1,1,1,1,2,0,2,1,2,1,1,0,0
37505000,37482000,5508000,28.1429579,112.983711,0.0037283702,0.0009125666,-0.71911556,0.061671816,0.029791044,0.0,0.013824712,0.0072065797,-0.031152854,-0.015449959,0.0076139756,0.013111351,0.039556198,0.026484532,-0.001877915,-0.05168095,-0.000871516,-0.069200575,50.838913,0.756467,0.17146221,0.33117557,0.108869106,0.0890667,inf,inf,inf,inf,1,1,1,1,2,0,2,1,2,1,1,0,0
37998000,37978000,5508000,28.1429579,112.983711,0.017297134,0.0006691496,-0.7188406,0.061671816,0.029791044,0.0,0.019037118,0.005505403,0.032060497,0.048086137,0.0076139756,0.013111351,0.039556198,-0.021958904,0.018246274,0.16342755,-0.00048474176,-0.069200575,50.838913,0.756192,0.17045356,0.3320777,0.10713883,0.08944528,inf,inf,inf,inf,1,1,1,1,2,0,2,1,2,1,1,0,0
38494000,38494000,5508000,28.1429579,112.983711,0.023846688,-0.016557308,-0.7064296,0.061671816,0.029791044,0.0,0.006854838,-0.0095289275,0.017725708,0.025683325,0.0076139756,0.013111351,0.039556198,-0.064328946,0.006275503,0.06565451,-0.0003867777,-0.069200575,50.838913,0.74378103,0.16952716,0.332969,0.10595553,0.08968667,inf,inf,inf,inf,1,1,1,1,2,0,2,1,2,1,1,0,0
38998000,38998000,5508000,28.1429579,112.983711,0.022035038,-0.022935756,-0.6985072,0.061671816,0.029791044,0.0,0.0019689624,-0.0051715984,0.013251811,0.016967976,0.0076139756,0.013111351,0.039556198,0.008777337,-0.03465494,0.013312324,-0.0011288356,-0.069200575,50.838913,0.7358586,0.17013644,0.33318081,0.112612575,0.08467644,inf,inf,inf,inf,1,1,1,1,2,0,2,1,2,1,1,0,0
39501000,39501000,5508000,28.1429579,112.983711,0.030141355,-0.021838818,-0.69491565,0.061671816,0.029791044,0.0,0.0064572887,-0.0036711008,0.009534699,0.010283931,0.0076139756,0.013111351,0.039556198,-0.08725006,-0.010661882,-0.079178385,-0.0013717797,-0.069200575,50.838913,0.7322671,0.16967681,0.33376148,0.1233964,0.08189563,inf,inf,inf,inf,1,1,1,1,2,0,2,1,2,1,1,0,0
39990000,39990000,5508000,28.1429579,112.983711,0.031981956,-0.014090721,-0.6913747,0.061671816,0.029791044,0.0,0.0006746019,0.0021593892,0.014876684,0.013469133,0.0076139756,0.013111351,0.039556198,0.042453136,-0.01980845,-0.15319045,-0.0019861076,-0.069200575,50.838913,0.72872615,0.16839387,0.3318425,0.1271852,0.0797936,inf,inf,inf,inf,1,1,1,1,2,0,2,1,2,1,1,0,0
40503000,40503000,5508000,28.1429579,112.983711,0.03183272,0.0010368566,-0.6766552,0.061671816,0.029791044,0.0,0.003719728,0.0061144396,0.0051938863,0.012770904,0.0076139756,0.013111351,0.039556198,0.019684272,-0.0500306,-0.09957382,-0.0019772898,-0.069200575,50.838913,0.7140066,0.16987887,0.33307365,0.12540914,0.0775668,inf,inf,inf,inf,1,1,1,1,2,0,2,1,2,1,1,0,0
40992000,40992000,5508000,28.1429579,112.983711,0.036734186,0.0099055115,-0.67210966,0.061671816,0.029791044,0.0,0.0013606403,0.002036091,0.002056484,0.0073511265,0.0076139756,0.013111351,0.039556198,-0.04669657,-0.017191557,-0.1045633,-0.0024338,-0.069200575,50.838913,0.7094611,0.16895092,0.3329341,0.12569156,0.07687545,inf,inf,inf,inf,1,1,1,1,2,0,2,1,2,1,1,0,0
41491000,41491000,5508000,28.1429579,112.983711,0.015194352,0.019120164,-0.6782114,0.061671816,0.029791044,0.0,-0.01242174,0.0028870825,-0.0012544389,-0.0043753632,0.0076139756,0.013111351,0.039556198,0.07511934,-0.059071,-0.028401611,-0.0025478099,-0.069200575,50.838913,0.7155628,0.16875541,0.33168688,0.12508743,0.0774078,inf,inf,inf,inf,1,1,1,1,2,0,2,1,2,1,1,0,0
41995000,41995000,5508000,28.1429579,112.983711,0.0039711716,0.016784884,-0.6642852,0.061671816,0.029791044,0.0,-0.005921007,-0.0018743392,0.00715528,0.015076639,0.0076139756,0.013111351,0.039556198,0.0013643798,-0.006513585,-0.07182573,-0.0025155577,-0.069200575,50.838913,0.7016366,0.16863568,0.33046147,0.12334329,0.07867892,inf,inf,inf,inf,1,1,1,1,2,0,2,1,2,1,1,0,0
42504000,42504000,5508000,28.1429579,112.983711,0.0071135503,0.016951755,-0.6434064,0.061671816,0.029791044,0.0,-0.0039006355,-0.0034931195,0.0018168085,0.022127906,0.0076139756,0.013111351,0.039556198,0.012317817,0.059394944,-0.11475012,-0.002764027,-0.069200575,50.838913,0.6807578,0.16593167,0.32915387,0.118600875,0.07972468,inf,inf,inf,inf,1,1,1,1,2,0,2,1,2,1,1,0,0
43003000,43003000,5508000,28.1429579,112.983711,0.0052746274,0.015998144,-0.6293003,0.061671816,0.029791044,0.0,-0.0044313325,-0.011208769,-0.002879055,0.020374114,0.0076139756,0.013111351,0.039556198,-0.050202943,-0.044869456,-0.019112868,-0.0026707295,-0.069200575,50.838913,0.6666517,0.16657665,0.32957676,0.11632304,0.08161244,inf,inf,inf,inf,1,1,1,1,2,0,2,1,2,1,1,0,0
43496000,43496000,5508000,28.1429579,112.983711,0.0010007451,0.011085346,-0.6173876,0.061671816,0.029791044,0.0,0.0036198508,-0.018090565,0.0036065546,0.02713149,0.0076139756,0.013111351,0.039556198,0.035026718,-0.04515178,0.06089359,-0.002837466,-0.069200575,50.838913,0.654739,0.1662248,0.3296827,0.113109864,0.08318648,inf,inf,inf,inf,1,1,1,1,2,0,2,1,2,1,1,0,0
44003000,43992000,5508000,28.1429579,112.983711,-0.005761509,0.011011978,-0.62047863,0.061671816,0.029791044,0.0,-0.0019833776,-0.012929006,0.0017910611,0.012534585,0.0076139756,0.013111351,0.039556198,0.058063347,0.056776866,-0.0072522084,-0.0029154213,-0.069200575,50.838913,0.65783006,0.1657246,0.32844737,0.110067345,0.08445679,inf,inf,inf,inf,1,1,1,1,2,0,2,1,2,1,1,0,0
44492000,44492000,5508000,28.1429579,112.983711,-0.017774964,0.017948708,-0.64642066,0.061671816,0.029791044,0.0,-0.00478965,0.0034919023,0.00096833333,-0.012018206,0.0076139756,0.013111351,0.039556198,0.022457726,-0.096371315,-0.163313,-0.0026976955,-0.069200575,50.838913,0.6837721,0.16560443,0.32922974,0.107518576,0.085734814,inf,inf,inf,inf,1,1,1,1,2,0,2,1,2,1,1,0,0
44996000,44972000,5508000,28.1429579,112.983711,-0.031069666,0.043697882,-0.64886343,0.061671816,0.029791044,0.0,-0.008373377,0.008689227,0.0024139727,-0.0062397253,0.0076139756,0.013111351,0.039556198,-0.006818312,-0.030265503,0.022360122,-0.0027827187,-0.069200575,50.838913,0.68621486,0.17016561,0.33031982,0.10875021,0.08775254,inf,inf,inf,inf,1,1,1,1,2,0,2,1,2,1,1,0,0
45499000,45499000,5508000,28.1429579,112.983711,-0.055438567,0.08148551,-0.6417736,0.061671816,0.029791044,0.0,-0.008030543,0.0142116835,0.0019243604,0.0024969105,0.0076139756,0.013111351,0.039556198,-0.054937128,-0.081787765,0.19290577,-0.0029346338,-0.069200575,50.838913,0.679125,0.17075206,0.33027375,0.10777961,0.08558663,inf,inf,inf,inf,1,1,1,1,2,0,2,1,2,1,1,0,0
45999000,45995000,5508000,28.1429579,112.983711,-0.06702321,0.10587583,-0.6445426,0.061671816,0.029791044,0.0,-0.0065813623,0.008615805,0.0039614225,0.0012915077,0.0076139756,0.013111351,0.039556198,0.048500575,-0.088008374,-0.005398478,-0.0027175897,-0.069200575,50.838913,0.681894,0.17022923,0.3311203,0.11176226,0.08231946,inf,inf,inf,inf,1,1,1,1,2,0,2,1,2,1,1,0,0
46492000,46484000,5508000,28.1429579,112.983711,-0.05805159,0.12119611,-0.6406843,0.061671816,0.029791044,0.0,0.007460946,0.006565157,-0.00071294466,0.0014361481,0.0076139756,0.013111351,0.039556198,0.0025964547,-0.00054052507,-0.06505847,-0.0032757272,-0.069200575,50.838913,0.67803574,0.1691992,0.3313976,0.11792909,0.08086448,inf,inf,inf,inf,1,1,1,1,2,0,2,1,2,1,1,0,0
46999000,46992000,5508000,28.1429579,112.983711,-0.046159573,0.13109487,-0.64150834,0.061671816,0.029791044,0.0,0.009228909,0.0008588962,-0.0031554792,-0.0017967158,0.0076139756,0.013111351,0.039556198,-0.043081287,-0.0041516465,-0.113190144,-0.0033186427,-0.069200575,50.838913,0.6788598,0.16994874,0.33094522,0.12240185,0.08086745,inf,inf,inf,inf,1,1,1,1,2,0,2,1,2,1,1,0,0
47488000,47484000,5508000,28.1429579,112.983711,-0.03432264,0.144623,-0.64096814,0.061671816,0.029791044,0.0,0.0047816774,0.0015759029,0.002507305,0.0034741114,0.0076139756,0.013111351,0.039556198,0.04173125,-0.04890457,0.050242987,-0.0031392474,-0.069200575,50.838913,0.6783196,0.16994384,0.3314833,0.12233358,0.081594914,inf,inf,inf,inf,1,1,1,1,2,0,2,1,2,1,1,0,0
47995000,47991000,5508000,28.1429579,112.983711,-0.03231354,0.14158471,-0.63171816,0.061671816,0.029791044,0.0,0.0027025936,-0.0055762557,0.05980822,0.064944714,0.0076139756,0.013111351,0.039556198,0.025926318,0.014929995,0.84722036,-0.0028456138,-0.069200575,50.838913,0.6690696,0.16996017,0.33054215,0.12068046,0.08264229,inf,inf,inf,inf,1,1,1,1,2,0,2,1,2,1,1,0,0
48497000,48461000,5508000,28.1429579,112.983711,-0.03433078,0.13949168,-0.3517659,0.061671816,0.029791044,0.0,0.003519305,-0.0020547854,1.0131822,1.0515772,0.0076139756,0.013111351,0.039556198,-0.0072798827,-0.09731234,0.6111897,-0.0038739054,-0.069200575,50.838913,0.38911733,0.16833691,0.3317007,0.114485934,0.0836442,inf,inf,inf,inf,1,1,1,1,2,0,2,1,2,1,1,0,0
49001000,48997000,5508000,28.1429579,112.983711,-0.02528563,0.12670936,0.038259767,0.061671816,0.029791044,0.0,-0.008145739,-0.011786628,0.0620929,0.08452701,0.0076139756,0.013111351,0.039556198,-0.18039103,0.013637258,0.24086794,-0.00594531,-0.069200575,50.838913,0.1,0.17028996,0.33058205,0.11332922,0.0827751,inf,inf,inf,inf,1,1,1,1,2,0,2,1,2,1,1,0,0
49500000,49493000,5508000,28.1429579,112.983711,-0.021842962,0.12563351,0.02270161,0.061671816,0.029791044,0.0,-0.010717647,-0.0096999295,0.09908581,0.064077415,0.0076139756,0.013111351,0.039556198,-0.024723312,0.0319359,-0.056176443,-0.005638623,-0.069200575,50.838913,0.1,0.16961557,0.33107802,0.11168162,0.07937298,inf,inf,inf,inf,1,1,1,1,2,0,2,1,2,1,1,0,0
49993000,49985000,5508000,28.1429579,112.983711,-0.02154912,0.13267191,0.019318974,0.061671816,0.029791044,0.0,-0.013577927,-0.0039075497,0.08964336,0.031227665,0.0076139756,0.013111351,0.039556198,0.027213825,0.059937038,-0.033663582,-0.005021085,-0.069200575,50.838913,0.1,0.1680994,0.33108047,0.11291041,0.07783787,inf,inf,inf,inf,1,1,1,1,2,0,2,1,2,1,1,0,0
50497000,50497000,5508000,28.1429579,112.983711,-0.020426277,0.1315118,0.01798843,0.061671816,0.029791044,0.0,-0.01574195,-5.2818323e-05,0.07568379,0.012464082,0.0076139756,0.013111351,0.039556198,-0.08497956,-0.0347639,-0.044171695,-0.004585471,-0.069200575,50.838913,0.1,0.16799697,0.33038595,0.11562696,0.0778838,inf,inf,inf,inf,1,1,1,1,2,0,2,1,2,1,1,0,0
51001000,51001000,5508000,28.1429579,112.983711,-0.013080871,0.120800525,0.026134213,0.061671816,0.029791044,0.0,-0.008931348,-0.0041274414,0.07569967,0.017122045,0.0076139756,0.013111351,0.039556198,-0.0077400794,-0.0091925915,-0.027376225,-0.004881168,-0.069200575,50.838913,0.1,0.16833107,0.33116594,0.11752219,0.07900579,inf,inf,inf,inf,1,1,1,1,2,0,2,1,2,1,1,0,0
51505000,51505000,5508000,28.1429579,112.983711,-0.011042536,0.11720926,0.020320082,0.061671816,0.029791044,0.0,-0.0073944335,-0.003183075,0.053813253,-0.010264413,0.0076139756,0.013111351,0.039556198,-0.032464746,0.07389056,0.08750706,-0.005457556,-0.069200575,50.838913,0.1,0.16791405,0.33006048,0.11623313,0.080335446,inf,inf,inf,inf,1,1,1,1,2,0,2,1,2,1,1,0,0
51985000,51985000,5508000,28.1429579,112.983711,-0.0054377113,0.12312207,0.011131326,0.061671816,0.029791044,0.0,-0.0075160097,0.0036805968,0.04161123,-0.019734643,0.0076139756,0.013111351,0.039556198,-0.009837124,0.010255164,-0.09782239,-0.005220518,-0.069200575,50.838913,0.10854866,0.17337921,0.3310841,0.11882001,0.08289227,inf,inf,inf,inf,1,1,1,1,2,0,2,1,2,1,1,0,0
52495000,52491000,5508000,28.1429579,112.983711,-0.01100793,0.13165407,-0.001828406,0.061671816,0.029791044,0.0,-0.009535073,0.005824008,0.019518994,-0.039400782,0.0076139756,0.013111351,0.039556198,0.055710122,-0.034644302,-0.05676821,-0.005191725,-0.069200575,50.838913,0.1,0.16510753,0.3297772,0.10859773,0.082914494,inf,inf,inf,inf,1,1,1,1,2,0,2,1,2,1,1,1,0
