timestamp,timestamp_sample,ref_timestamp,ref_lat,ref_lon,x,y,z,delta_xy[0],delta_xy[1],delta_z,vx,vy,vz,z_deriv,delta_vxy[0],delta_vxy[1],delta_vz,ax,ay,az,heading,delta_heading,ref_alt,dist_bottom,eph,epv,evh,evv,vxy_max,vz_max,hagl_min,hagl_max,xy_valid,z_valid,v_xy_valid,v_z_valid,xy_reset_counter,z_reset_counter,vxy_reset_counter,vz_reset_counter,heading_reset_counter,xy_global,z_global,dist_bottom_valid,dist_bottom_sensor_bitfield
628000,628000,0,nan,nan,-4.0764408e-07,6.9208767e-07,-1.0448985e-06,0.0,0.0,0.0,-0.00021307837,0.00015280055,-0.00024773585,-0.00024955455,0.0001236019,2.2483211e-05,0.0,-0.04320177,0.017090492,-0.028751789,0.11753585,0.11752096,nan,0.1,0.70622146,3.5000029,7.071068,0.45001808,inf,inf,inf,inf,0,1,0,1,1,0,1,0,1,0,0,1,2
996000,996000,0,nan,nan,0.0005467893,-0.0012446024,0.0012215665,0.0,0.0,0.0,0.0041209576,-0.0070354277,-0.007074877,-0.004175499,0.0001236019,2.2483211e-05,0.0,-0.014110807,-0.014139204,-0.03111921,0.11754148,0.11752096,nan,0.10170726,1.0541295,1.2392889,4.5420094,0.45411348,inf,inf,inf,inf,0,1,0,1,1,0,1,0,1,0,0,1,2
1504000,1504000,0,nan,nan,0.0027776938,-0.0039807884,-0.010082021,0.0,0.0,0.0,0.007762788,-0.0077045276,-0.007489497,-0.012018862,0.0001236019,2.2483211e-05,0.0,0.030291485,0.038285874,-0.043186355,0.11791158,0.11752096,nan,0.1,0.5947773,0.84734803,1.368132,0.47422367,inf,inf,inf,inf,0,1,0,1,1,0,1,0,1,0,0,1,2
2000000,2000000,0,nan,nan,0.0041990126,-0.0035903011,-0.014727097,0.0,0.0,0.0,0.008164786,-0.006350078,-0.0038626292,-0.007019818,0.0001236019,2.2483211e-05,0.0,0.036888584,0.064946055,7.171183e-05,0.118145265,0.11752096,nan,0.104176626,0.6286434,0.7480597,1.4111669,0.504508,inf,inf,inf,inf,0,1,0,1,1,0,1,0,1,0,0,1,2
2492000,2492000,0,nan,nan,0.0014168994,-0.0024523214,-0.009598012,0.0,0.0,0.0,-0.0030582878,-0.004185615,0.00893629,0.010493893,0.0001236019,2.2483211e-05,0.0,-0.0557278,0.03551581,0.075947486,0.118302874,0.11752096,nan,0.1029994,0.7429494,0.7188795,1.7063581,0.5292407,inf,inf,inf,inf,0,1,0,1,1,0,1,0,1,0,0,1,2
3000000,3000000,0,nan,nan,-0.0049119173,8.88963e-06,0.0005193151,0.0,0.0,0.0,-0.015946401,0.001968428,0.024750903,0.027573435,0.0001236019,2.2483211e-05,0.0,-0.03220588,0.04811945,-0.018801538,0.11855937,0.11752096,nan,0.1,0.6089313,0.7518152,1.3963354,0.54955965,inf,inf,inf,inf,0,1,0,1,1,0,1,0,1,0,0,1,2
3500000,3500000,0,nan,nan,-0.009360223,0.0027711831,0.012421879,0.0,0.0,0.0,-0.020547548,0.0066267224,0.027929239,0.027464693,0.0001236019,2.2483211e-05,0.0,-0.05382466,0.051268354,0.06683356,0.11866193,0.11752096,nan,0.1,0.6911173,0.7724954,1.3864753,0.54785806,inf,inf,inf,inf,0,1,0,1,1,0,1,0,1,0,0,1,2
4000000,4000000,0,nan,nan,-0.009447547,0.0032097702,0.019531956,0.0,0.0,0.0,-0.017184589,0.00230113,0.0344017,0.028519163,0.0001236019,2.2483211e-05,0.0,-0.0056531625,-0.005759423,0.0018635764,0.11858274,0.11752096,nan,0.1,0.53584504,0.80520934,1.0730726,0.54180026,inf,inf,inf,inf,0,1,0,1,1,0,1,0,1,0,0,1,2
4500000,4500000,0,nan,nan,-0.006259138,0.00014473763,0.02172545,0.0,0.0,0.0,-0.008760005,-0.0046243244,0.027456898,0.013938658,0.0001236019,2.2483211e-05,0.0,-0.013758704,-0.03486929,-0.038680617,0.11907981,0.11752096,nan,0.1,0.59942096,0.80351686,1.0940051,0.5178065,inf,inf,inf,inf,0,1,0,1,1,0,1,0,1,0,0,1,2
5000000,5000000,0,nan,nan,-0.0017609617,-0.0040770452,0.02291118,0.0,0.0,0.0,-0.0014000633,-0.0105027715,0.034436084,0.0150813395,0.0001236019,2.2483211e-05,0.0,0.018433485,0.07365485,0.04017539,0.118985824,0.11752096,nan,0.1,0.48439276,0.8150185,0.87805015,0.50066495,inf,inf,inf,inf,0,1,0,1,1,0,1,0,1,0,0,1,2
5492000,5492000,0,nan,nan,0.0016756733,-0.0054749353,0.02472909,0.0,0.0,0.0,0.0042040236,-0.009703281,0.03331581,0.009890884,0.0001236019,2.2483211e-05,0.0,0.0017437259,-0.0209848,0.026317311,0.11873117,0.11752096,nan,0.1,0.52733433,0.8174788,0.8695143,0.48197344,inf,inf,inf,inf,0,1,0,1,1,0,1,0,1,0,0,1,2
6000000,6000000,5504000,28.142957499999998,112.9837115,0.005768618,-0.0028630823,0.025930913,0.0,0.0,0.0,0.01243313,-0.0013139441,0.038019676,0.011995552,0.0001236019,2.2483211e-05,0.0,-0.023798961,-0.0432369,0.028553417,0.11922137,0.11752096,50.785084,0.1,0.5803961,0.8023639,0.8722252,0.45711678,inf,inf,inf,inf,0,1,0,1,1,0,1,0,1,1,1,1,0
6504000,6504000,5504000,28.142957499999998,112.9837115,0.007653369,0.0012634303,0.02751193,0.0,0.0,0.0,0.014128303,0.0061903615,0.033496298,0.006083508,0.0001236019,2.2483211e-05,0.0,0.047924414,0.017756589,-0.011404975,0.11948218,0.11752096,50.785084,0.1,0.4760697,0.80194247,0.6916175,0.4398385,inf,inf,inf,inf,0,1,0,1,1,0,1,0,1,1,1,1,0
6992000,6992000,5504000,28.142957499999998,112.9837115,0.0077145267,0.003712663,0.024690533,0.0,0.0,0.0,0.013436379,0.007962503,0.03616076,0.005590106,0.0001236019,2.2483211e-05,0.0,0.01047642,0.08577408,0.09696092,0.052796293,-0.06684236,50.785084,0.1,0.49544176,0.7763669,0.56811243,0.4144104,inf,inf,inf,inf,0,1,0,1,1,0,1,0,2,1,1,1,0
7492000,7492000,5504000,28.142957499999998,112.9837115,0.010617482,0.0063970457,0.020967364,0.0,0.0,0.0,0.01803934,0.012507678,0.026115999,-0.0059789456,0.0001236019,2.2483211e-05,0.0,0.0030218496,0.08152215,0.01528859,0.053487517,-0.06684236,50.785084,0.1,0.49661642,0.7743992,0.5555312,0.39855683,inf,inf,inf,inf,0,1,0,1,1,0,1,0,2,1,1,1,0
8000000,8000000,5504000,28.142957499999998,112.9837115,0.011915813,0.008442757,0.012206448,0.0,0.0,0.0,0.017965421,0.017192723,0.016942615,-0.015280626,0.0001236019,2.2483211e-05,0.0,-0.03530419,0.036775734,0.03084447,0.05384953,-0.06684236,50.785084,0.1,0.43614024,0.75719917,0.5792827,0.37764606,inf,inf,inf,inf,0,1,0,1,1,0,1,0,2,1,1,1,0
8504000,8504000,5504000,28.142957499999998,112.9837115,0.013356075,0.010827491,0.006738577,0.0,0.0,0.0,0.021983568,0.017457781,0.006712467,-0.020485956,0.0001236019,2.2483211e-05,0.0,0.07027281,0.02027603,-0.06695017,0.0534901,-0.06684236,50.785084,0.10168627,0.48600844,0.7379263,0.6272455,0.35715058,inf,inf,inf,inf,0,1,0,1,1,0,1,0,2,1,1,1,0
8992000,8992000,5504000,28.142957499999998,112.9837115,0.014217669,0.010473611,0.0006174151,0.0,0.0,0.0,0.025103312,0.011806351,-0.000853222,-0.023255356,0.0001236019,2.2483211e-05,0.0,0.029645644,-0.002571075,0.040969808,0.053257618,-0.06684236,50.785084,0.102534935,0.42445776,0.73324704,0.5242895,0.34264192,inf,inf,inf,inf,0,1,0,1,1,0,1,0,2,1,1,1,0
9500000,9500000,5504000,28.142957499999998,112.9837115,0.01255503,0.0060142684,-0.0029398678,0.0,0.0,0.0,0.01761702,0.0049122027,-0.0042953566,-0.020570572,0.0001236019,2.2483211e-05,0.0,0.08113106,0.02900785,0.05246233,0.053460512,-0.06684236,50.785084,0.105728514,0.45770523,0.7185752,0.486739,0.32497284,inf,inf,inf,inf,0,1,0,1,1,0,1,0,2,1,1,1,0
10000000,10000000,5504000,28.142957499999998,112.9837115,0.009722181,0.00086927495,-0.010202153,0.0,0.0,0.0,0.012037476,-0.0026143938,-0.009436674,-0.02293114,0.0001236019,2.2483211e-05,0.0,-0.029685862,0.04888147,0.002321787,0.053243138,-0.06684236,50.785084,0.10323006,0.4763987,0.7166654,0.44435522,0.3123207,inf,inf,inf,inf,0,1,0,1,1,0,1,0,2,1,1,1,0
10496000,10496000,5504000,28.142957499999998,112.9837115,0.07372817,-0.039222717,0.021869173,0.071723744,-0.05015667,0.0,0.004325626,0.01243859,0.055856377,0.038004853,0.0003510937,0.03265019,0.09679155,0.029770285,-0.056109477,0.012955627,0.052576616,-0.06684236,50.785084,0.1,0.25958154,0.6201903,0.18023528,0.1587062,inf,inf,inf,inf,1,1,1,1,2,0,2,1,2,1,1,1,0
10996000,10996000,5504000,28.142957499999998,112.9837115,0.06558177,-0.048989158,0.012105049,0.071723744,-0.05015667,0.0,0.014745275,-0.0060633468,0.023256525,-0.008177545,0.0003510937,0.03265019,0.09679155,0.012375306,-0.008453282,-0.0718953,0.05233144,-0.06684236,50.785084,0.1,0.21235834,0.5482831,0.17261225,0.12888236,inf,inf,inf,inf,1,1,1,1,2,0,2,1,2,1,1,1,0
11504000,11504000,5504000,28.142957499999998,112.9837115,0.07268132,-0.048632342,0.0064585567,0.071723744,-0.05015667,0.0,0.016339572,-0.003818229,0.00578807,-0.01990213,0.0003510937,0.03265019,0.09679155,-0.021430843,-0.009298855,-0.04276726,0.051937133,-0.06684236,50.785084,0.10210271,0.19281106,0.4997542,0.18166764,0.115315095,inf,inf,inf,inf,1,1,1,1,2,0,2,1,2,1,1,1,0
11992000,11992000,5504000,28.142957499999998,112.9837115,0.0645516,-0.052049674,0.01126014,0.071723744,-0.05015667,0.0,3.4251425e-06,-0.012162,0.0078230295,-0.006840372,0.0003510937,0.03265019,0.09679155,0.011005691,-0.046382703,0.061453316,0.051175814,-0.06684236,50.785084,0.1,0.18251681,0.46785757,0.17815919,0.108703405,inf,inf,inf,inf,1,1,1,1,2,0,2,1,2,1,1,1,0
12500000,12500000,5504000,28.142957499999998,112.9837115,0.061655317,-0.05621862,0.003863637,0.071723744,-0.05015667,0.0,0.0044280635,-0.015230081,0.0046429187,-0.012814125,0.0003510937,0.03265019,0.09679155,0.031958256,-0.050055053,-0.07715262,0.05064678,-0.06684236,50.785084,0.1,0.17849727,0.44084027,0.17301832,0.10609153,inf,inf,inf,inf,1,1,1,1,2,0,2,1,2,1,1,1,0
13000000,13000000,5504000,28.142957499999998,112.9837115,0.05894651,-0.049903493,0.006453082,0.071723744,-0.05015667,0.0,0.002013022,-0.001464492,0.008377737,-0.003463363,0.0003510937,0.03265019,0.09679155,0.03648241,0.015303965,0.0488311,0.050733186,-0.06684236,50.785084,0.10550488,0.1758572,0.42262992,0.16565607,0.105218165,inf,inf,inf,inf,1,1,1,1,2,0,2,1,2,1,1,1,0
13500000,13500000,5504000,28.142957499999998,112.9837115,0.055391412,-0.047663312,0.008284444,0.071723744,-0.05015667,0.0,0.0027706241,0.0069616684,0.00046844143,-0.0094048,0.0003510937,0.03265019,0.09679155,0.016580982,-0.0006586742,0.084763385,0.050723016,-0.06684236,50.785084,0.1,0.1742354,0.40553135,0.15941823,0.104796246,inf,inf,inf,inf,1,1,1,1,2,0,2,1,2,1,1,1,0
13992000,13992000,5504000,28.142957499999998,112.9837115,0.057710826,-0.04868225,-0.0029174786,0.071723744,-0.05015667,0.0,0.01084344,0.002375725,-0.0035175052,-0.015367068,0.0003510937,0.03265019,0.09679155,-0.055082545,0.053800803,-0.06619281,0.050726704,-0.06684236,50.785084,0.11126936,0.17249024,0.3938786,0.15344055,0.104404286,inf,inf,inf,inf,1,1,1,1,2,0,2,1,2,1,1,1,0
14504000,14504000,5504000,28.142957499999998,112.9837115,0.056495644,-0.05767969,-0.0037646468,0.071723744,-0.05015667,0.0,0.003874009,-0.003781062,-0.0071577528,-0.015371882,0.0003510937,0.03265019,0.09679155,-0.018821634,-0.045553856,0.120655626,0.051254906,-0.06684236,50.785084,0.1,0.1724944,0.38322964,0.14962551,0.10416219,inf,inf,inf,inf,1,1,1,1,2,0,2,1,2,1,1,1,0
15000000,15000000,5504000,28.142957499999998,112.9837115,0.051452577,-0.06107616,-0.020026617,0.071723744,-0.05015667,0.0,-0.0032604756,-0.002568195,-0.006720573,-0.02154227,0.0003510937,0.03265019,0.09679155,0.038224705,-0.025964795,-0.041272487,0.0510632,-0.06684236,50.785084,0.10098819,0.17164782,0.37623608,0.14554055,0.10347933,inf,inf,inf,inf,1,1,1,1,2,0,2,1,2,1,1,1,0
15496000,15496000,5504000,28.142957499999998,112.9837115,0.05002685,-0.054039024,-0.028156545,0.071723744,-0.05015667,0.0,0.0013225438,0.011006105,-0.008410397,-0.021533342,0.0003510937,0.03265019,0.09679155,-0.015690915,0.017473346,0.02239365,0.050931122,-0.06684236,50.785084,0.1,0.1702554,0.3700918,0.14151657,0.10228449,inf,inf,inf,inf,1,1,1,1,2,0,2,1,2,1,1,1,0
16000000,16000000,5504000,28.142957499999998,112.9837115,0.04707117,-0.04265386,-0.04385921,0.071723744,-0.05015667,0.0,8.738541e-05,0.019361436,-0.023786696,-0.035351023,0.0003510937,0.03265019,0.09679155,0.06073356,0.009301971,0.004280358,0.05087006,-0.06684236,50.785084,0.11150721,0.17046793,0.36417586,0.13975926,0.10123044,inf,inf,inf,inf,1,1,1,1,2,0,2,1,2,1,1,1,0
16504000,16504000,5504000,28.142957499999998,112.9837115,0.06022163,-0.044179533,-0.0285662,0.071723744,-0.05015667,0.0,0.009972407,0.014288936,-0.02116053,-0.0063536325,0.0003510937,0.03265019,0.09679155,0.013970397,0.052067135,0.05299132,0.051135205,-0.06684236,50.785084,0.11519556,0.16978893,0.35872915,0.13634352,0.09973855,inf,inf,inf,inf,1,1,1,1,2,0,2,1,2,1,1,1,0
16992000,16992000,5504000,28.142957499999998,112.9837115,0.06456641,-0.047859326,-0.018815413,0.071723744,-0.05015667,0.0,0.012294907,0.011731261,-0.011989142,0.007956319,0.0003510937,0.03265019,0.09679155,-0.05362355,0.027327761,-0.07073767,0.051212385,-0.06684236,50.785084,0.10970938,0.17679061,0.358034,0.14083216,0.10046555,inf,inf,inf,inf,1,1,1,1,2,0,2,1,2,1,1,1,0
17496000,17496000,5504000,28.142957499999998,112.9837115,0.056286007,-0.048129484,-0.027722666,0.071723744,-0.05015667,0.0,0.0003453189,0.012222622,-0.018510472,-0.009462959,0.0003510937,0.03265019,0.09679155,-0.06446265,0.022686131,-0.11163763,0.05070325,-0.06684236,50.785084,0.1,0.17589761,0.35570598,0.13746066,0.09889121,inf,inf,inf,inf,1,1,1,1,2,0,2,1,2,1,1,1,0
18004000,18004000,5504000,28.142957499999998,112.9837115,0.047231596,-0.04678337,-0.029108843,0.071723744,-0.05015667,0.0,-0.006335835,0.018060202,-0.00817222,0.0027333407,0.0003510937,0.03265019,0.09679155,0.00056646054,-0.024935097,0.0696415,0.050528374,-0.06684236,50.785084,0.10205386,0.17601961,0.35261714,0.13530546,0.09740155,inf,inf,inf,inf,1,1,1,1,2,0,2,1,2,1,1,1,0
18504000,18504000,5504000,28.142957499999998,112.9837115,0.037745684,-0.05015831,-0.0342489,0.071723744,-0.05015667,0.0,-0.0142290555,0.010563164,-0.01252685,-0.0068532648,0.0003510937,0.03265019,0.09679155,0.039164346,-0.007058473,-0.025135463,0.050690964,-0.06684236,50.785084,0.10132401,0.1752051,0.34940615,0.13226736,0.095732205,inf,inf,inf,inf,1,1,1,1,2,0,2,1,2,1,1,1,0
18992000,18980000,5504000,28.142957499999998,112.9837115,0.038589664,-0.05094271,-0.033668462,0.071723744,-0.05015667,0.0,-0.012736427,0.0043718084,-0.024047017,-0.011617388,0.0003510937,0.03265019,0.09679155,-0.044992924,-0.07735908,-0.040723007,0.050453994,-0.06684236,50.785084,0.10959841,0.17278072,0.34722048,0.1282531,0.093970895,inf,inf,inf,inf,1,1,1,1,2,0,2,1,2,1,1,1,0
19499000,19484000,5504000,28.142957499999998,112.9837115,0.040404562,-0.03384884,-0.037971452,0.071723744,-0.05015667,0.0,-0.00940802,0.014520976,-0.018586366,-0.0063389833,0.0003510937,0.03265019,0.09679155,0.018490328,0.030804947,0.05488563,0.050725356,-0.06684236,50.785084,0.10313988,0.1722566,0.34636113,0.12602596,0.09285963,inf,inf,inf,inf,1,1,1,1,2,0,2,1,2,1,1,1,0
19996000,19988000,5504000,28.142957499999998,112.9837115,0.038302124,-0.02811559,-0.036876712,0.071723744,-0.05015667,0.0,-0.010446226,0.010372309,-0.02464885,-0.008393209,0.0003510937,0.03265019,0.09679155,-0.033116046,-0.07335708,0.023349186,0.05053483,-0.06684236,50.785084,0.1,0.17174354,0.34403846,0.12400895,0.09181406,inf,inf,inf,inf,1,1,1,1,2,0,2,1,2,1,1,1,0
20496000,20484000,5504000,28.142957499999998,112.9837115,0.055192463,-0.035402436,-0.033415597,0.071723744,-0.05015667,0.0,0.00026540784,0.0024731655,-0.01664879,0.0042026634,0.0003510937,0.03265019,0.09679155,-0.0028465497,-0.055001546,0.011106952,0.050995894,-0.06684236,50.785084,0.10815938,0.17119241,0.3435775,0.12191922,0.09110071,inf,inf,inf,inf,1,1,1,1,2,0,2,1,2,1,1,1,0
20988000,20980000,5504000,28.142957499999998,112.9837115,0.058567233,-0.042361096,-0.03958706,0.071723744,-0.05015667,0.0,0.0035535006,-0.0036208006,-0.022163434,-0.010248222,0.0003510937,0.03265019,0.09679155,-0.011395141,0.015288495,0.009474344,0.05062447,-0.06684236,50.785084,0.1,0.17070524,0.34323302,0.1201665,0.09055923,inf,inf,inf,inf,1,1,1,1,2,0,2,1,2,1,1,1,0
21500000,21492000,5504000,28.142957499999998,112.9837115,0.05983649,-0.04978872,-0.0478673,0.071723744,-0.05015667,0.0,0.0047940775,-0.015088605,-0.029148282,-0.017189382,0.0003510937,0.03265019,0.09679155,0.054536358,-0.0059373374,-0.03715418,0.050045174,-0.06684236,50.785084,0.10810895,0.1709283,0.34186983,0.11901783,0.09021057,inf,inf,inf,inf,1,1,1,1,2,0,2,1,2,1,1,1,0
21994000,21986000,5504000,28.142957499999998,112.9837115,0.059526924,-0.05996589,-0.05280515,0.071723744,-0.05015667,0.0,0.0034681533,-0.023030007,-0.031163806,-0.015502279,0.0003510937,0.03265019,0.09679155,0.011561294,-0.012543037,0.060308196,0.04958363,-0.06684236,50.785084,0.10619247,0.16969498,0.34121704,0.117218696,0.08972357,inf,inf,inf,inf,1,1,1,1,2,0,2,1,2,1,1,1,0
22502000,22502000,5504000,28.142957499999998,112.9837115,0.058133498,-0.070718765,-0.053780828,0.071723744,-0.05015667,0.0,-0.0040776012,-0.025556123,-0.023750909,-0.004295327,0.0003510937,0.03265019,0.09679155,-0.066079825,-0.03424912,-0.07436796,0.049328387,-0.06684236,50.785084,0.105788276,0.16948071,0.33962864,0.11695312,0.08782089,inf,inf,inf,inf,1,1,1,1,2,0,2,1,2,1,1,1,0
22991000,22978000,5504000,28.142957499999998,112.9837115,0.059851557,-0.071918994,-0.050107516,0.071723744,-0.05015667,0.0,-0.004092037,-0.024105271,-0.023650974,-0.0012312627,0.0003510937,0.03265019,0.09679155,-0.03562624,-0.06815304,-0.04045851,0.049218968,-0.06684236,50.785084,0.10451799,0.16560961,0.3383785,0.1125175,0.08246345,inf,inf,inf,inf,1,1,1,1,2,0,2,1,2,1,1,1,0
23494000,23470000,5504000,28.142957499999998,112.9837115,0.064920016,-0.05698867,-0.054602124,0.071723744,-0.05015667,0.0,0.0009704665,-0.013516456,-0.024027186,-0.005671328,0.0003510937,0.03265019,0.09679155,0.02469578,-0.05697116,0.034919005,0.049315423,-0.06684236,50.785084,0.1,0.16553503,0.33787557,0.11196041,0.07962397,inf,inf,inf,inf,1,1,1,1,2,0,2,1,2,1,1,1,0
23994000,23970000,5504000,28.142957499999998,112.9837115,0.06388883,-0.054503642,-0.07437915,0.071723744,-0.05015667,0.0,-0.0015974458,-0.010805913,-0.030520517,-0.024390541,0.0003510937,0.03265019,0.09679155,-0.03956654,-0.050445404,-0.029347835,0.049665984,-0.06684236,50.785084,0.100313835,0.16596867,0.33622828,0.111707136,0.07862275,inf,inf,inf,inf,1,1,1,1,2,0,2,1,2,1,1,1,0
24503000,24479000,5504000,28.142957499999998,112.9837115,0.054085884,-0.054152817,-0.07729448,0.071723744,-0.05015667,0.0,-0.008150183,-0.0063194325,-0.037567727,-0.02151356,0.0003510937,0.03265019,0.09679155,-0.015045444,-0.011309351,-0.048531216,0.04960875,-0.06684236,50.785084,0.11178785,0.16672674,0.335005,0.11150624,0.078991465,inf,inf,inf,inf,1,1,1,1,2,0,2,1,2,1,1,1,0
24994000,24970000,5504000,28.142957499999998,112.9837115,0.047404394,-0.05740233,-0.07337053,0.071723744,-0.05015667,0.0,-0.010818091,-0.015259099,-0.033714764,-0.006665084,0.0003510937,0.03265019,0.09679155,0.026874775,-0.043240383,-0.0068256627,0.049524948,-0.06684236,50.785084,0.11371885,0.1659003,0.33450922,0.11062176,0.07988133,inf,inf,inf,inf,1,1,1,1,2,0,2,1,2,1,1,1,0
25502000,25482000,5504000,28.142957499999998,112.9837115,0.048554532,-0.064483754,-0.07896392,0.071723744,-0.05015667,0.0,-0.0068614106,-0.021144688,-0.03062353,-0.007937656,0.0003510937,0.03265019,0.09679155,-0.012329614,-0.015067273,-0.02926029,0.04929028,-0.06684236,50.785084,0.1,0.16656144,0.3333965,0.11027122,0.081394464,inf,inf,inf,inf,1,1,1,1,2,0,2,1,2,1,1,1,0
26002000,25962000,5504000,28.142957499999998,112.9837115,0.06202441,-0.069374725,-0.08442379,0.071723744,-0.05015667,0.0,0.0035292937,-0.026093854,-0.022828806,-0.0027994162,0.0003510937,0.03265019,0.09679155,0.038847197,-0.04881038,0.012984498,0.048911486,-0.06684236,50.785084,0.10426747,0.1692733,0.33244255,0.11328608,0.08250593,inf,inf,inf,inf,1,1,1,1,2,0,2,1,2,1,1,1,0
26495000,26462000,5504000,28.142957499999998,112.9837115,0.070045285,-0.071960345,-0.07760455,0.071723744,-0.05015667,0.0,0.011646594,-0.023309087,-0.02412988,-0.0010033684,0.0003510937,0.03265019,0.09679155,-0.01607864,-0.020651892,-0.05765352,0.0490108,-0.06684236,50.785084,0.10659535,0.16324165,0.32989433,0.10846594,0.077786,inf,inf,inf,inf,1,1,1,1,2,0,2,1,2,1,1,1,0
26994000,26994000,5504000,28.142957499999998,112.9837115,0.07736984,-0.08127486,-0.071967006,0.071723744,-0.05015667,0.0,0.014471021,-0.028204415,-0.013587428,0.011013267,0.0003510937,0.03265019,0.09679155,0.07901733,-0.031432364,0.03246404,0.04903723,-0.06684236,50.785084,0.10339577,0.16644119,0.33202505,0.109124295,0.07626313,inf,inf,inf,inf,1,1,1,1,2,0,2,1,2,1,1,1,0
27483000,27483000,5504000,28.142957499999998,112.9837115,0.08058336,-0.082144156,-0.07544989,0.071723744,-0.05015667,0.0,0.015132316,-0.02506363,-0.0122662885,0.0031585488,0.0003510937,0.03265019,0.09679155,-0.010920401,0.044247862,0.14424026,0.049055472,-0.06684236,50.785084,0.10497931,0.17361122,0.33383986,0.13227507,0.07561968,inf,inf,inf,inf,1,1,1,1,2,0,2,1,2,1,1,1,0
27998000,27994000,5504000,28.142957499999998,112.9837115,0.06585245,-0.072387405,-0.07755124,0.071723744,-0.05015667,0.0,-0.0054530776,-0.0038676627,-0.015332876,-0.0030480188,0.0003510937,0.03265019,0.09679155,-0.055340182,0.023895169,-0.016918404,0.04879591,-0.06684236,50.785084,0.10708065,0.16665767,0.3313876,0.16893864,0.07453583,inf,inf,inf,inf,1,1,1,1,2,0,2,1,2,1,1,1,0
28499000,28494000,5504000,28.142957499999998,112.9837115,0.06663106,-0.05387413,-0.07832894,0.071723744,-0.05015667,0.0,0.002455656,0.02251219,-0.0077423546,0.005411165,0.0003510937,0.03265019,0.09679155,-0.058052365,0.065318316,0.005861744,0.048750382,-0.06684236,50.785084,0.10785835,0.16721554,0.33143532,0.1704119,0.075632714,inf,inf,inf,inf,1,1,1,1,2,0,2,1,2,1,1,1,0
28998000,28994000,5504000,28.142957499999998,112.9837115,0.061305914,-0.0385993,-0.07574891,0.071723744,-0.05015667,0.0,-0.0001644489,0.020448636,-0.009386083,0.0029839538,0.0003510937,0.03265019,0.09679155,-0.057865016,-0.019596351,-0.05642138,0.048985794,-0.06684236,50.785084,0.10527833,0.16760458,0.3300234,0.15777192,0.077252895,inf,inf,inf,inf,1,1,1,1,2,0,2,1,2,1,1,1,0
29492000,29492000,5504000,28.142957499999998,112.9837115,0.06315383,-0.046366666,-0.079735115,0.071723744,-0.05015667,0.0,0.003639972,0.007163736,-0.004752835,0.0019144104,0.0003510937,0.03265019,0.09679155,0.005094417,0.0025332454,0.010903925,0.04935273,-0.06684236,50.785084,0.10926453,0.17033404,0.3283827,0.15065983,0.07913382,inf,inf,inf,inf,1,1,1,1,2,0,2,1,2,1,1,1,0
29995000,29995000,5504000,28.142957499999998,112.9837115,0.061266582,-0.054825924,-0.08184466,0.071723744,-0.05015667,0.0,0.005884346,0.005980515,0.0018044114,0.0028371033,0.0003510937,0.03265019,0.09679155,-0.007779939,0.04883276,-0.037364658,0.0490379,-0.06684236,50.785084,0.11137407,0.17237689,0.32890874,0.1415066,0.08145667,inf,inf,inf,inf,1,1,1,1,2,0,2,1,2,1,1,1,0
30499000,30499000,5504000,28.142957499999998,112.9837115,0.0660279,-0.06373107,-0.08311766,0.071723744,-0.05015667,0.0,0.007169268,-0.0021095723,0.0004904787,0.001338053,0.0003510937,0.03265019,0.09679155,0.009654502,-0.006461357,-0.087969,0.037742786,-0.06684236,50.785084,0.11264707,0.17417951,0.3285665,0.13294387,0.0836812,inf,inf,inf,inf,1,1,1,1,2,0,2,1,2,1,1,1,0
30999000,30999000,5504000,28.142957499999998,112.9837115,0.059199687,-0.06311937,-0.09057777,0.071723744,-0.05015667,0.0,-0.0065019643,0.008011096,-0.014244313,-0.015771914,0.0003510937,0.03265019,0.09679155,-0.0136933895,0.03387378,-0.25752744,0.011828953,-0.06684236,50.785084,0.12010718,0.17395382,0.32938153,0.124596596,0.085437596,inf,inf,inf,inf,1,1,1,1,2,0,2,1,2,1,1,1,0
31495000,31495000,5504000,28.142957499999998,112.9837115,0.058115777,-0.05270807,-0.14371699,0.071723744,-0.05015667,0.0,0.00058908877,0.018494215,-0.19989316,-0.1970571,0.0003510937,0.03265019,0.09679155,0.040256724,0.03909095,-0.15127192,-0.011755151,-0.06684236,50.785084,0.17324641,0.17328034,0.32887834,0.1181093,0.08675441,inf,inf,inf,inf,1,1,1,1,2,0,2,1,2,1,1,1,0
31995000,31995000,5504000,28.142957499999998,112.9837115,0.06397541,-0.047521967,-0.2539938,0.071723744,-0.05015667,0.0,0.00496797,0.008749449,-0.24891289,-0.24160323,0.0003510937,0.03265019,0.09679155,-0.03641954,-0.057983108,-0.11086184,-0.0063156732,-0.06684236,50.785084,0.28352323,0.17238821,0.3284651,0.1132471,0.08774035,inf,inf,inf,inf,1,1,1,1,2,0,2,1,2,1,1,1,0
32495000,32495000,5504000,28.142957499999998,112.9837115,0.06115468,-0.064892404,-0.37393007,0.071723744,-0.05015667,0.0,-3.0563024e-06,-0.0016144908,-0.25276288,-0.24123721,0.0003510937,0.03265019,0.09679155,-0.0351218,0.028949842,0.055827197,-0.0027449524,-0.06684236,50.785084,0.4034595,0.17133889,0.32954827,0.10965821,0.08852318,inf,inf,inf,inf,1,1,1,1,2,0,2,1,2,1,1,0,0
32999000,32999000,5504000,28.142957499999998,112.9837115,0.053109847,-0.07890467,-0.48724836,0.071723744,-0.05015667,0.0,0.003644731,0.016547399,-0.23047931,-0.2165737,0.0003510937,0.03265019,0.09679155,-0.008168455,0.029103423,0.073813826,-0.0027031223,-0.06684236,50.785084,0.51677775,0.17006657,0.33064124,0.106955886,0.08902179,inf,inf,inf,inf,1,1,1,1,2,0,2,1,2,1,1,0,0
33495000,33495000,5504000,28.142957499999998,112.9837115,0.057415638,-0.07721392,-0.60019875,0.071723744,-0.05015667,0.0,0.011763807,0.034302883,-0.1997815,-0.19660115,0.0003510937,0.03265019,0.09679155,-0.045904335,0.089189686,0.07104314,-0.0025325983,-0.06684236,50.785084,0.62972814,0.16895406,0.33025104,0.10521458,0.08924133,inf,inf,inf,inf,1,1,1,1,2,0,2,1,2,1,1,0,0
33995000,33995000,5504000,28.142957499999998,112.9837115,0.06299526,-0.059500672,-0.68473136,0.071723744,-0.05015667,0.0,0.005759247,0.035910983,-0.15167354,-0.1468676,0.0003510937,0.03265019,0.09679155,-0.04128185,-0.037288703,-0.06930064,-0.0019484548,-0.06684236,50.785084,0.71426076,0.16804752,0.33132702,0.10442732,0.08945219,inf,inf,inf,inf,1,1,1,1,2,0,2,1,2,1,1,0,0
34499000,34499000,5504000,28.142957499999998,112.9837115,0.060558412,-0.04238781,-0.7553786,0.071723744,-0.05015667,0.0,0.00074765296,0.02858763,-0.13036337,-0.12593262,0.0003510937,0.03265019,0.09679155,0.00455018,-0.008962961,0.15082209,-0.0010501463,-0.06684236,50.785084,0.784908,0.16728415,0.3309013,0.10400401,0.089458056,inf,inf,inf,inf,1,1,1,1,2,0,2,1,2,1,1,0,0
34998000,34998000,5504000,28.142957499999998,112.9837115,0.06668304,-0.028341351,-0.8157807,0.071723744,-0.05015667,0.0,0.0073594707,0.011840499,-0.09482848,-0.09339668,0.0003510937,0.03265019,0.09679155,-0.050635662,-0.021677671,0.25828078,-0.0008930686,-0.06684236,50.785084,0.8453101,0.16667242,0.33193266,0.10411357,0.08951164,inf,inf,inf,inf,1,1,1,1,2,0,2,1,2,1,1,0,0
35497000,35497000,5504000,28.142957499999998,112.9837115,0.082152165,-0.02097429,-0.73342925,0.071723744,-0.05015667,0.0,0.0065294662,-0.023524879,0.13762456,0.1553125,0.0003510937,0.03265019,0.09679155,-0.052192915,-0.100587405,-0.5534105,-0.00089304463,-0.06684236,50.785084,0.76295865,0.16635531,0.33292708,0.103572525,0.08956184,inf,inf,inf,inf,1,1,1,1,2,0,2,1,2,1,1,0,0
36001000,36001000,5504000,28.142957499999998,112.9837115,0.08632968,-0.04213322,-0.70343095,0.071723744,-0.05015667,0.0,-0.005496567,-0.057687245,0.041179366,0.04505276,0.0003510937,0.03265019,0.09679155,0.019401396,-0.057632238,-0.036420297,-0.0007658721,-0.06684236,50.785084,0.73296034,0.1658979,0.3323474,0.104212046,0.08940854,inf,inf,inf,inf,1,1,1,1,2,0,2,1,2,1,1,0,0
36497000,36497000,5504000,28.142957499999998,112.9837115,0.082814485,-0.06617832,-0.70433575,0.071723744,-0.05015667,0.0,-0.0093700485,-0.053775396,0.021384506,0.011558185,0.0003510937,0.03265019,0.09679155,-0.028300533,-0.035833023,-0.03004167,-0.0008947027,-0.06684236,50.785084,0.73386514,0.16559342,0.33325705,0.10478655,0.089373656,inf,inf,inf,inf,1,1,1,1,2,0,2,1,2,1,1,0,0
36997000,36997000,5504000,28.142957499999998,112.9837115,0.068365805,-0.07941777,-0.7133709,0.071723744,-0.05015667,0.0,-0.013589026,-0.032731004,0.014114999,-0.00347669,0.0003510937,0.03265019,0.09679155,-0.03149367,0.029598475,0.07400475,-0.00055526604,-0.06684236,50.785084,0.7429003,0.16529863,0.33262378,0.10466252,0.08920228,inf,inf,inf,inf,1,1,1,1,2,0,2,1,2,1,1,0,0
37490000,37490000,5504000,28.142957499999998,112.9837115,0.050914753,-0.084469326,-0.7026932,0.071723744,-0.05015667,0.0,-0.009576706,-0.023769978,0.00851156,0.0039581247,0.0003510937,0.03265019,0.09679155,0.028207622,-0.019476546,-0.18222928,-0.0002049229,-0.06684236,50.785084,0.7322226,0.16430262,0.33301163,0.10414093,0.088938065,inf,inf,inf,inf,1,1,1,1,2,0,2,1,2,1,1,0,0
38005000,38005000,5504000,28.142957499999998,112.9837115,0.047500145,-0.07810928,-0.6908104,0.071723744,-0.05015667,0.0,0.011691438,-0.016075397,-0.02344434,-0.012962185,0.0003510937,0.03265019,0.09679155,0.044536445,-0.013215306,-0.096129246,-0.00044862804,-0.06684236,50.785084,0.7203398,0.16531321,0.3333163,0.10501347,0.08915331,inf,inf,inf,inf,1,1,1,1,2,0,2,1,2,1,1,0,0
38496000,38496000,5504000,28.142957499999998,112.9837115,0.0510637,-0.079383805,-0.6718641,0.071723744,-0.05015667,0.0,0.01162558,-0.010108359,0.030691678,0.04462859,0.0003510937,0.03265019,0.09679155,0.04603713,0.0038177336,-0.0074324864,-3.0807885e-05,-0.06684236,50.785084,0.7013935,0.17132534,0.33562908,0.108580396,0.09067966,inf,inf,inf,inf,1,1,1,1,2,0,2,1,2,1,1,0,0
39007000,39007000,5504000,28.142957499999998,112.9837115,0.04504149,-0.07753052,-0.66362375,0.071723744,-0.05015667,0.0,0.004991225,-0.0036914449,0.021625215,0.027597455,0.0003510937,0.03265019,0.09679155,-0.039651584,0.021239948,-0.066014,-7.651891e-05,-0.06684236,50.785084,0.69315314,0.1646776,0.3334103,0.1040515,0.08890511,inf,inf,inf,inf,1,1,1,1,2,0,2,1,2,1,1,0,0
39499000,39483000,5504000,28.142957499999998,112.9837115,0.033693187,-0.08345725,-0.6596267,0.071723744,-0.05015667,0.0,-0.00072824437,-0.0045464165,0.0120878015,0.012592238,0.0003510937,0.03265019,0.09679155,0.010221743,0.00861695,0.058492642,-0.00024601232,-0.06684236,50.785084,0.6891561,0.16921607,0.33467093,0.10710636,0.090035394,inf,inf,inf,inf,1,1,1,1,2,0,2,1,2,1,1,0,0
39994000,39975000,5504000,28.142957499999998,112.9837115,0.025926854,-0.08838981,-0.6566238,0.071723744,-0.05015667,0.0,0.000112088586,-0.0015263882,0.008166268,0.0052708555,0.0003510937,0.03265019,0.09679155,0.021627072,0.009276798,0.06180163,-0.00014382716,-0.06684236,50.785084,0.6861532,0.1691231,0.3354408,0.10687905,0.09003762,inf,inf,inf,inf,1,1,1,1,2,0,2,1,2,1,1,0,0
40499000,40482000,5504000,28.142957499999998,112.9837115,0.01773598,-0.092486575,-0.651031,0.071723744,-0.05015667,0.0,-0.0012789912,-0.0057948786,0.007073901,0.008916748,0.0003510937,0.03265019,0.09679155,0.015459112,0.030869586,-0.092823595,-0.00037221398,-0.06684236,50.785084,0.6805604,0.1678136,0.33518556,0.11128318,0.08672533,inf,inf,inf,inf,1,1,1,1,2,0,2,1,2,1,1,0,0
41003000,40983000,5504000,28.142957499999998,112.9837115,0.021074006,-0.09211097,-0.63521314,0.071723744,-0.05015667,0.0,0.0011067968,0.0015913203,0.006228159,0.015390802,0.0003510937,0.03265019,0.09679155,0.022012832,0.020258868,-0.051254403,8.1764425e-05,-0.06684236,50.785084,0.6647425,0.16941851,0.33663255,0.12219201,0.08243138,inf,inf,inf,inf,1,1,1,1,2,0,2,1,2,1,1,0,0
41495000,41475000,5504000,28.142957499999998,112.9837115,0.02358982,-0.089845434,-0.62708575,0.071723744,-0.05015667,0.0,0.0014635378,0.00014020535,0.00715725,0.015985496,0.0003510937,0.03265019,0.09679155,0.015241378,-0.060033124,-0.12153293,-9.1682415e-07,-0.06684236,50.785084,0.65661514,0.16942486,0.33534536,0.13181989,0.0801594,inf,inf,inf,inf,1,1,1,1,2,0,2,1,2,1,1,0,0
41995000,41995000,5504000,28.142957499999998,112.9837115,0.013908265,-0.08485449,-0.6336422,0.071723744,-0.05015667,0.0,0.0013334212,-0.00068106584,-0.0016295216,-0.002706694,0.0003510937,0.03265019,0.09679155,0.03402388,0.0013124943,0.020452773,-0.00052501,-0.06684236,50.785084,0.6631716,0.16679542,0.33414814,0.13332403,0.079142965,inf,inf,inf,inf,1,1,1,1,2,0,2,1,2,1,1,0,0
42502000,42502000,5504000,28.142957499999998,112.9837115,0.007723997,-0.08997759,-0.6211894,0.071723744,-0.05015667,0.0,0.0019388085,-0.0014317773,0.0018126189,0.011694066,0.0003510937,0.03265019,0.09679155,0.009630652,0.018767606,-0.0017040543,-0.00023450046,-0.06684236,50.785084,0.6507188,0.16918062,0.33511856,0.12555753,0.07646466,inf,inf,inf,inf,1,1,1,1,2,0,2,1,2,1,1,0,0
42995000,42995000,5504000,28.142957499999998,112.9837115,0.009535289,-0.09118235,-0.6011187,0.071723744,-0.05015667,0.0,0.00700159,0.004328122,-0.005406635,0.013984969,0.0003510937,0.03265019,0.09679155,-0.033961855,0.03307101,-0.08446536,8.342476e-05,-0.06684236,50.785084,0.6306481,0.17103268,0.33477366,0.12419193,0.07533356,inf,inf,inf,inf,1,1,1,1,2,0,2,1,2,1,1,0,0
43499000,43499000,5504000,28.142957499999998,112.9837115,0.00747331,-0.09223283,-0.587908,0.071723744,-0.05015667,0.0,0.0048803333,-6.295378e-05,-0.0004520241,0.022471793,0.0003510937,0.03265019,0.09679155,0.0023952874,0.037064467,-0.12315959,0.00018500398,-0.06684236,50.785084,0.6174374,0.1702626,0.33460057,0.1253193,0.07559163,inf,inf,inf,inf,1,1,1,1,2,0,2,1,2,1,1,0,0
43995000,43995000,5504000,28.142957499999998,112.9837115,0.0043205214,-0.093560465,-0.5805942,0.071723744,-0.05015667,0.0,0.00080276054,-0.002576601,-0.010931531,0.009814848,0.0003510937,0.03265019,0.09679155,-0.021308493,-0.041597333,-0.049938444,0.00022770534,-0.06684236,50.785084,0.6101236,0.16968822,0.33292723,0.12532315,0.07674891,inf,inf,inf,inf,1,1,1,1,2,0,2,1,2,1,1,0,0
44475000,44475000,5504000,28.142957499999998,112.9837115,0.008901385,-0.09747359,-0.5830049,0.071723744,-0.05015667,0.0,0.0051236968,-0.0015823023,-0.006112435,0.004661412,0.0003510937,0.03265019,0.09679155,0.027901996,0.037202384,0.054029744,0.0002777483,-0.06684236,50.785084,0.6125343,0.17554125,0.333414,0.12878712,0.079368666,inf,inf,inf,inf,1,1,1,1,2,0,2,1,2,1,1,0,0
44995000,44979000,5504000,28.142957499999998,112.9837115,0.021888241,-0.08941381,-0.6129512,0.071723744,-0.05015667,0.0,0.012722163,0.00464393,-0.00795228,-0.022235543,0.0003510937,0.03265019,0.09679155,-0.0821577,0.040497605,-0.048437152,0.00062384235,-0.06684236,50.785084,0.6424806,0.16701387,0.3320674,0.11880876,0.0800785,inf,inf,inf,inf,1,1,1,1,2,0,2,1,2,1,1,0,0
45503000,45487000,5504000,28.142957499999998,112.9837115,0.019925166,-0.066253245,-0.62193906,0.071723744,-0.05015667,0.0,0.002027543,0.0097067645,-0.003758821,-0.015256942,0.0003510937,0.03265019,0.09679155,-0.014548789,-0.08205701,-0.0859592,0.00046414105,-0.06684236,50.785084,0.65146846,0.16668566,0.33075213,0.115800016,0.08188665,inf,inf,inf,inf,1,1,1,1,2,0,2,1,2,1,1,0,0
45990000,45975000,5504000,28.142957499999998,112.9837115,0.0018313602,-0.048196487,-0.6188363,0.071723744,-0.05015667,0.0,-0.0061255633,0.0075259195,-0.0023177925,-0.0052551385,0.0003510937,0.03265019,0.09679155,-0.0004176363,-0.08444368,0.010061077,0.00078367745,-0.06684236,50.785084,0.6483657,0.17381915,0.33250496,0.11769909,0.085053116,inf,inf,inf,inf,1,1,1,1,2,0,2,1,2,1,1,0,0
46503000,46483000,5504000,28.142957499999998,112.9837115,-0.00018287648,-0.041778624,-0.6206728,0.071723744,-0.05015667,0.0,0.004704792,0.0055182497,-0.0037216428,-0.0055439794,0.0003510937,0.03265019,0.09679155,0.019779334,-0.033547863,-0.09133014,0.00072888,-0.06684236,50.785084,0.6502022,0.1729619,0.33150098,0.114259996,0.08641818,inf,inf,inf,inf,1,1,1,1,2,0,2,1,2,1,1,0,0
46995000,46979000,5504000,28.142957499999998,112.9837115,0.003760359,-0.044364925,-0.6140117,0.071723744,-0.05015667,0.0,0.005961388,0.00013593638,0.00018482146,0.0050527495,0.0003510937,0.03265019,0.09679155,-0.03374548,-0.027434852,0.03708526,0.0006673327,-0.06684236,50.785084,0.6435411,0.17217478,0.3321418,0.11115521,0.08760468,inf,inf,inf,inf,1,1,1,1,2,0,2,1,2,1,1,0,0
47499000,47479000,5504000,28.142957499999998,112.9837115,0.00863065,-0.05599065,-0.6239131,0.071723744,-0.05015667,0.0,0.0044659013,-0.0007665785,-0.004778479,-0.008780547,0.0003510937,0.03265019,0.09679155,0.017520245,0.008899341,0.024987383,0.0008536262,-0.06684236,50.785084,0.6534425,0.17131318,0.33139154,0.108866245,0.088395305,inf,inf,inf,inf,1,1,1,1,2,0,2,1,2,1,1,0,0
47999000,47979000,5504000,28.142957499999998,112.9837115,0.014790841,-0.07388921,-0.6360944,0.071723744,-0.05015667,0.0,0.006268384,-0.0036936498,-0.008326785,-0.01584195,0.0003510937,0.03265019,0.09679155,-0.035212032,-0.045001037,0.032730397,0.001290035,-0.06684236,50.785084,0.6656238,0.17053139,0.33223265,0.10705279,0.0890574,inf,inf,inf,inf,1,1,1,1,2,0,2,1,2,1,1,0,0
48498000,48491000,5504000,28.142957499999998,112.9837115,0.015442242,-0.07284345,-0.59141046,0.071723744,-0.05015667,0.0,-0.0007238472,0.002459172,0.38073155,0.38273194,0.0003510937,0.03265019,0.09679155,0.0072369026,-0.032802742,2.400548,0.0022638543,-0.06684236,50.785084,0.62093985,0.16861549,0.3307434,0.105535634,0.087268725,inf,inf,inf,inf,1,1,1,1,2,0,2,1,2,1,1,0,0
48995000,48991000,5504000,28.142957499999998,112.9837115,0.019070262,-0.07374315,-0.10253675,0.071723744,-0.05015667,0.0,0.010737346,-0.006527799,0.86244094,0.9143889,0.0003510937,0.03265019,0.09679155,-0.028111799,-0.04061082,-1.5482185,0.00066111155,-0.06684236,50.785084,0.13206616,0.16976571,0.33103967,0.10695517,0.082718804,inf,inf,inf,inf,1,1,1,1,2,0,2,1,2,1,1,0,0
49491000,49487000,5504000,28.142957499999998,112.9837115,0.025785714,-0.08654622,0.061728965,0.071723744,-0.05015667,0.0,0.0075738733,-0.009625356,0.065910086,0.05506994,0.0003510937,0.03265019,0.09679155,-0.056872804,0.02436868,0.04452094,-0.00030919223,-0.06684236,50.785084,0.1,0.16967864,0.3320594,0.11768864,0.080116674,inf,inf,inf,inf,1,1,1,1,2,0,2,1,2,1,1,0,0
49991000,49987000,5504000,28.142957499999998,112.9837115,0.032562785,-0.084030256,0.040997006,0.071723744,-0.05015667,0.0,0.010514945,-0.012521863,0.048501264,0.0068609556,0.0003510937,0.03265019,0.09679155,0.011189798,0.03460184,-0.07773097,-5.1404862e-05,-0.06684236,50.785084,0.1,0.16941394,0.332529,0.12036852,0.07777394,inf,inf,inf,inf,1,1,1,1,2,0,2,1,2,1,1,0,0
50499000,50495000,5504000,28.142957499999998,112.9837115,0.030810582,-0.081254885,0.025286851,0.071723744,-0.05015667,0.0,0.0028598327,-0.005410792,0.030873487,-0.019019522,0.0003510937,0.03265019,0.09679155,-0.06899314,0.017432258,-0.024373641,0.00013648548,-0.06684236,50.785084,0.1,0.17021784,0.33184564,0.12427976,0.0772947,inf,inf,inf,inf,1,1,1,1,2,0,2,1,2,1,1,0,0
50999000,50995000,5504000,28.142957499999998,112.9837115,0.03522869,-0.08444973,0.027344724,0.071723744,-0.05015667,0.0,0.0025292654,-0.005002098,0.027559029,-0.009065306,0.0003510937,0.03265019,0.09679155,0.018019667,0.06989113,0.10136235,0.0005813723,-0.06684236,50.785084,0.102235,0.17031582,0.3321645,0.12480764,0.07799521,inf,inf,inf,inf,1,1,1,1,2,0,2,1,2,1,1,0,0
51499000,51495000,5504000,28.142957499999998,112.9837115,0.03787725,-0.09532435,0.029123662,0.071723744,-0.05015667,0.0,-0.0023617295,-0.005073566,0.024937544,-0.0054248455,0.0003510937,0.03265019,0.09679155,-0.033564866,-0.011512093,-0.13217515,0.0005958971,-0.06684236,50.785084,0.10253833,0.17038815,0.33097982,0.12327145,0.07929286,inf,inf,inf,inf,1,1,1,1,2,0,2,1,2,1,1,0,0
51999000,51995000,5504000,28.142957499999998,112.9837115,0.041160416,-0.09527067,0.015287076,0.071723744,-0.05015667,0.0,0.006827018,4.4830293e-05,0.008598514,-0.025817584,0.0003510937,0.03265019,0.09679155,-0.004888701,0.0040104007,0.06762239,0.0010815426,-0.06684236,50.785084,0.11637492,0.17039672,0.33134866,0.12033821,0.08101846,inf,inf,inf,inf,1,1,1,1,2,0,2,1,2,1,1,0,0
52495000,52491000,5504000,28.142957499999998,112.9837115,0.039718162,-0.086998425,0.007482119,0.071723744,-0.05015667,0.0,0.0034812305,0.007459793,-0.0073992386,-0.034274675,0.0003510937,0.03265019,0.09679155,0.05222772,0.0342029,-0.12121256,0.00148946,-0.06684236,50.785084,0.10294748,0.16936567,0.3299184,0.112727694,0.08249639,inf,inf,inf,inf,1,1,1,1,2,0,2,1,2,1,1,1,0
52999000,52995000,5504000,28.142957499999998,112.9837115,0.04018408,-0.078891,-0.004071827,0.071723744,-0.05015667,0.0,0.0015045925,0.01405668,-0.009384997,-0.029861266,0.0003510937,0.03265019,0.09679155,0.0075036194,-0.039305944,-0.15909876,0.001501216,-0.06684236,50.785084,0.10671075,0.16947614,0.32944983,0.109484136,0.084223285,inf,inf,inf,inf,1,1,1,1,2,0,2,1,2,1,1,1,0
