timestamp,timestamp_sample,ref_timestamp,ref_lat,ref_lon,x,y,z,delta_xy[0],delta_xy[1],delta_z,vx,vy,vz,z_deriv,delta_vxy[0],delta_vxy[1],delta_vz,ax,ay,az,heading,delta_heading,ref_alt,dist_bottom,eph,epv,evh,evv,vxy_max,vz_max,hagl_min,hagl_max,xy_valid,z_valid,v_xy_valid,v_z_valid,xy_reset_counter,z_reset_counter,vxy_reset_counter,vz_reset_counter,heading_reset_counter,xy_global,z_global,dist_bottom_valid,dist_bottom_sensor_bitfield
628000,628000,0,nan,nan,6.5192815e-08,8.48567e-07,5.962566e-07,0.0,0.0,0.0,-0.00015975795,0.00014762909,0.00015881086,0.00015608608,0.0001957488,7.1728675e-05,0.0,-0.04527563,0.010261274,0.023222527,0.11825025,0.11821037,nan,0.1,0.70622146,3.5000029,7.071068,0.45001808,inf,inf,inf,inf,0,1,0,1,1,0,1,0,1,0,0,1,2
996000,996000,0,nan,nan,0.00064773794,-0.0015108454,0.0011212253,0.0,0.0,0.0,0.00448609,-0.008432243,-0.0077497484,-0.0048475466,0.0001957488,7.1728675e-05,0.0,-0.029270198,-0.019441565,0.04923157,0.118274726,0.11821037,nan,0.101811446,1.0541295,1.2392889,4.5420213,0.45411363,inf,inf,inf,inf,0,1,0,1,1,0,1,0,1,0,0,1,2
1504000,1504000,0,nan,nan,0.002939991,-0.0046632243,-0.011183808,0.0,0.0,0.0,0.00822808,-0.009665863,-0.009824596,-0.014377809,0.0001957488,7.1728675e-05,0.0,0.039222445,0.024153609,-0.025900079,0.11868847,0.11821037,nan,0.1,0.60394573,0.8481886,1.3761079,0.4748233,inf,inf,inf,inf,0,1,0,1,1,0,1,0,1,0,0,1,2
1996000,1996000,0,nan,nan,0.0044258195,-0.004687589,-0.016833257,0.0,0.0,0.0,0.008621937,-0.008852009,-0.0075571043,-0.01045869,0.0001957488,7.1728675e-05,0.0,0.026005264,0.059182994,-0.07660314,0.118910715,0.11821037,nan,0.10484922,0.6190634,0.7472442,1.3869026,0.5042818,inf,inf,inf,inf,0,1,0,1,1,0,1,0,1,0,0,1,2
2496000,2496000,0,nan,nan,0.0015346166,-0.003190565,-0.012748975,0.0,0.0,0.0,-0.002783957,-0.004810472,0.004587384,0.0070309993,0.0001957488,7.1728675e-05,0.0,-0.012605224,-0.005982317,-0.044578683,0.119164534,0.11821037,nan,0.10372424,0.75642896,0.720733,1.7224371,0.53018695,inf,inf,inf,inf,0,1,0,1,1,0,1,0,1,0,0,1,2
2984000,2984000,0,nan,nan,-0.0047776615,0.00019088211,-0.0044078263,0.0,0.0,0.0,-0.016002504,0.0026958757,0.01929425,0.023530997,0.0001957488,7.1728675e-05,0.0,-0.043417443,0.04078107,0.07564667,0.11963259,0.11821037,nan,0.1,0.60814494,0.7463181,1.4000663,0.54781115,inf,inf,inf,inf,0,1,0,1,1,0,1,0,1,0,0,1,2
3500000,3500000,0,nan,nan,-0.009775483,0.0037585879,0.006876445,0.0,0.0,0.0,-0.02168444,0.008281994,0.021637563,0.023525352,0.0001957488,7.1728675e-05,0.0,-0.05057238,0.05913886,0.041511837,0.11966614,0.11821037,nan,0.1,0.7039142,0.7704596,1.398836,0.5472349,inf,inf,inf,inf,0,1,0,1,1,0,1,0,1,0,0,1,2
3984000,3984000,0,nan,nan,-0.009775394,0.0039324802,0.012638408,0.0,0.0,0.0,-0.017930932,0.0034169045,0.02793797,0.02505689,0.0001957488,7.1728675e-05,0.0,-0.08218208,0.046724766,-0.015291384,0.11945199,0.11821037,nan,0.1,0.5396261,0.7982565,1.0767387,0.53937626,inf,inf,inf,inf,0,1,0,1,1,0,1,0,1,0,0,1,2
4500000,4500000,0,nan,nan,-0.0066431626,0.00039714843,0.015107866,0.0,0.0,0.0,-0.009279688,-0.0046977657,0.02119612,0.011680065,0.0001957488,7.1728675e-05,0.0,0.0035018257,-0.022025784,-0.07422268,0.120069124,0.11821037,nan,0.1,0.6093092,0.800951,1.1120466,0.5168502,inf,inf,inf,inf,0,1,0,1,1,0,1,0,1,0,0,1,2
4996000,4996000,0,nan,nan,-0.0020830617,-0.004292353,0.016776439,0.0,0.0,0.0,-0.0023908024,-0.01170236,0.029565485,0.014940154,0.0001957488,7.1728675e-05,0.0,0.0007344266,0.06710511,0.02726633,0.11995494,0.11821037,nan,0.1,0.4927465,0.81273,0.88674295,0.49986216,inf,inf,inf,inf,0,1,0,1,1,0,1,0,1,0,0,1,2
5492000,5492000,0,nan,nan,0.0012063648,-0.006123844,0.019647641,0.0,0.0,0.0,0.003542196,-0.01076615,0.03041272,0.011882654,0.0001957488,7.1728675e-05,0.0,0.03669497,-0.04820737,0.080164514,0.119702235,0.11821037,nan,0.1,0.54071885,0.8146776,0.8923291,0.48085308,inf,inf,inf,inf,0,1,0,1,1,0,1,0,1,0,0,1,2
5996000,5996000,5508000,28.142957499999998,112.9837115,0.005452061,-0.0033647106,0.02180883,0.0,0.0,0.0,0.012229618,-0.0018813118,0.035222147,0.013945145,0.0001957488,7.1728675e-05,0.0,-0.029826146,-0.016252574,-0.023002734,0.120217785,0.11821037,50.78059,0.1,0.5962924,0.7997744,0.8863805,0.45611125,inf,inf,inf,inf,0,1,0,1,1,0,1,0,1,1,1,1,0
6504000,6504000,5508000,28.142957499999998,112.9837115,0.007281158,0.0010505634,0.023845026,0.0,0.0,0.0,0.013803283,0.005903452,0.03077986,0.0075898706,0.0001957488,7.1728675e-05,0.0,0.08268047,0.033341665,-0.02890825,0.12051592,0.11821037,50.78059,0.1,0.4961597,0.782442,0.71246445,0.43198386,inf,inf,inf,inf,0,1,0,1,1,0,1,0,1,1,1,1,0
6996000,6996000,5508000,28.142957499999998,112.9837115,0.007662184,0.0035831658,0.021622954,0.0,0.0,0.0,0.013609738,0.007902846,0.034039497,0.0071422863,0.0001957488,7.1728675e-05,0.0,-0.009366109,0.032304436,-0.10749045,0.052400332,-0.06830747,50.78059,0.1,0.5137697,0.77747047,0.5795301,0.414548,inf,inf,inf,inf,0,1,0,1,1,0,1,0,2,1,1,1,0
7496000,7496000,5508000,28.142957499999998,112.9837115,0.010892803,0.0063431934,0.018617962,0.0,0.0,0.0,0.018466603,0.013093728,0.024568759,-0.00417379,0.0001957488,7.1728675e-05,0.0,0.067914985,0.094402805,-0.004149973,0.053386934,-0.06830747,50.78059,0.1,0.41889843,0.77572286,0.50990474,0.39879757,inf,inf,inf,inf,0,1,0,1,1,0,1,0,2,1,1,1,0
7996000,7996000,5508000,28.142957499999998,112.9837115,0.012492009,0.008614414,0.0105627375,0.0,0.0,0.0,0.019474173,0.01780166,0.016086401,-0.013316991,0.0001957488,7.1728675e-05,0.0,-0.066444695,0.030225717,0.021104699,0.053856656,-0.06830747,50.78059,0.1,0.44995746,0.75526786,0.5926308,0.37700504,inf,inf,inf,inf,0,1,0,1,1,0,1,0,2,1,1,1,0
8495000,8495000,5508000,28.142957499999998,112.9837115,0.014608053,0.0114338435,0.0056508225,0.0,0.0,0.0,0.024114013,0.01879253,0.007296396,-0.017732328,0.0001957488,7.1728675e-05,0.0,0.018279124,0.02053444,0.02273385,0.053455032,-0.06830747,50.78059,0.102552846,0.4991639,0.75025314,0.640943,0.361691,inf,inf,inf,inf,0,1,0,1,1,0,1,0,2,1,1,1,0
8996000,8996000,5508000,28.142957499999998,112.9837115,0.015332684,0.01085764,-0.00016050226,0.0,0.0,0.0,0.027596036,0.01200847,-0.0016286972,-0.022199268,0.0001957488,7.1728675e-05,0.0,0.07222674,-0.066902034,-0.11287629,0.05318475,-0.06830747,50.78059,0.102179915,0.45031828,0.7345155,0.54398954,0.3428331,inf,inf,inf,inf,0,1,0,1,1,0,1,0,2,1,1,1,0
9496000,9496000,5508000,28.142957499999998,112.9837115,0.014054049,0.006815403,-0.0033753703,0.0,0.0,0.0,0.01905858,0.0059382776,-0.004457264,-0.019446408,0.0001957488,7.1728675e-05,0.0,0.082216695,0.04768186,-0.030790454,0.05346374,-0.06830747,50.78059,0.10523342,0.47748348,0.7170714,0.49942416,0.32451326,inf,inf,inf,inf,0,1,0,1,1,0,1,0,2,1,1,1,0
10000000,10000000,5508000,28.142957499999998,112.9837115,0.010731998,0.0014889906,-0.010347436,0.0,0.0,0.0,0.01324935,-0.0014912859,-0.009912011,-0.022356512,0.0001957488,7.1728675e-05,0.0,-0.024136584,0.1016055,-0.014821998,0.05331313,-0.06830747,50.78059,0.1028156,0.40583035,0.71506166,0.39050302,0.3118257,inf,inf,inf,inf,0,1,0,1,1,0,1,0,2,1,1,1,0
10496000,10496000,5508000,28.142957499999998,112.9837115,0.07380172,-0.039044928,0.02061112,0.07062475,-0.05049643,0.0,0.0049171112,0.013837219,0.05504673,0.038121667,-0.00074759685,0.032901313,0.09666292,0.018803189,-0.044615373,-0.02038665,0.05264634,-0.06830747,50.78059,0.1,0.25963917,0.61131775,0.1813823,0.15864746,inf,inf,inf,inf,1,1,1,1,2,0,2,1,2,1,1,1,0
10996000,10996000,5508000,28.142957499999998,112.9837115,0.06567083,-0.048222777,0.011452966,0.07062475,-0.05049643,0.0,0.0153609775,-0.0039984905,0.02375732,-0.0067942855,-0.00074759685,0.032901313,0.09666292,0.017044509,0.007150595,-0.05416106,0.052534103,-0.06830747,50.78059,0.1,0.2124985,0.5487792,0.1737087,0.12891068,inf,inf,inf,inf,1,1,1,1,2,0,2,1,2,1,1,1,0
11496000,11496000,5508000,28.142957499999998,112.9837115,0.07262791,-0.04795167,0.0066934847,0.07062475,-0.05049643,0.0,0.016747734,-0.0022406555,0.0073130084,-0.0177275,-0.00074759685,0.032901313,0.09666292,-0.019950772,0.012152672,-0.093192786,0.052234113,-0.06830747,50.78059,0.10115181,0.19228622,0.49971747,0.18078868,0.11512397,inf,inf,inf,inf,1,1,1,1,2,0,2,1,2,1,1,1,0
11996000,11996000,5508000,28.142957499999998,112.9837115,0.064550444,-0.051679146,0.011268938,0.07062475,-0.05049643,0.0,0.000130812,-0.012159627,0.009087928,-0.0056974525,-0.00074759685,0.032901313,0.09666292,0.028072674,-0.08129793,-0.079285346,0.051458675,-0.06830747,50.78059,0.1,0.18278816,0.4682425,0.17962746,0.10875141,inf,inf,inf,inf,1,1,1,1,2,0,2,1,2,1,1,1,0
12496000,12496000,5508000,28.142957499999998,112.9837115,0.061622117,-0.056338515,0.0039048707,0.07062475,-0.05049643,0.0,0.0044724126,-0.015520085,0.005222117,-0.01262163,-0.00074759685,0.032901313,0.09666292,0.01854067,-0.048493497,-0.143704,0.050852414,-0.06830747,50.78059,0.1,0.17797527,0.44068554,0.17214291,0.10586374,inf,inf,inf,inf,1,1,1,1,2,0,2,1,2,1,1,1,0
12996000,12996000,5508000,28.142957499999998,112.9837115,0.05886061,-0.050280247,0.00590139,0.07062475,-0.05049643,0.0,0.002618842,-0.0019412171,0.008384057,-0.0042130426,-0.00074759685,0.032901313,0.09666292,0.073409826,0.06469928,0.11825095,0.050903805,-0.06830747,50.78059,0.10528911,0.17529982,0.4224308,0.16468793,0.10497606,inf,inf,inf,inf,1,1,1,1,2,0,2,1,2,1,1,1,0
13496000,13496000,5508000,28.142957499999998,112.9837115,0.055638395,-0.04795678,0.0074754166,0.07062475,-0.05049643,0.0,0.0036038202,0.0067551155,-0.0003072083,-0.010575911,-0.00074759685,0.032901313,0.09666292,0.0027279074,-0.002454976,0.0043371688,0.050804675,-0.06830747,50.78059,0.1,0.17371018,0.40530846,0.15827924,0.10455703,inf,inf,inf,inf,1,1,1,1,2,0,2,1,2,1,1,1,0
13996000,13996000,5508000,28.142957499999998,112.9837115,0.05786441,-0.048711464,-0.0040516774,0.07062475,-0.05049643,0.0,0.011593894,0.0023960473,-0.0036424785,-0.015583828,-0.00074759685,0.032901313,0.09666292,0.009210602,0.06160683,0.13126898,0.05076831,-0.06830747,50.78059,0.11160958,0.17269558,0.3941678,0.15305586,0.10444556,inf,inf,inf,inf,1,1,1,1,2,0,2,1,2,1,1,1,0
14504000,14504000,5508000,28.142957499999998,112.9837115,0.05652969,-0.058032546,-0.0046881316,0.07062475,-0.05049643,0.0,0.004331952,-0.0047448417,-0.007271082,-0.015002601,-0.00074759685,0.032901313,0.09666292,-0.021517187,-0.08820597,0.15270895,0.051354144,-0.06830747,50.78059,0.1,0.17260818,0.38346982,0.14959589,0.104174554,inf,inf,inf,inf,1,1,1,1,2,0,2,1,2,1,1,1,0
15000000,15000000,5508000,28.142957499999998,112.9837115,0.051437095,-0.06098749,-0.020608136,0.07062475,-0.05049643,0.0,-0.0029160199,-0.0018028199,-0.006979007,-0.02133077,-0.00074759685,0.032901313,0.09666292,0.037551068,-0.011143634,-0.09382236,0.051182594,-0.06830747,50.78059,0.10084683,0.17099386,0.37591183,0.14491765,0.103220254,inf,inf,inf,inf,1,1,1,1,2,0,2,1,2,1,1,1,0
15496000,15496000,5508000,28.142957499999998,112.9837115,0.050248116,-0.053676516,-0.02900166,0.07062475,-0.05049643,0.0,0.0023430097,0.011724109,-0.009455679,-0.022175163,-0.00074759685,0.032901313,0.09666292,-0.03336711,-0.0011833744,0.025777144,0.05109487,-0.06830747,50.78059,0.1,0.17037995,0.3682566,0.14216903,0.1021301,inf,inf,inf,inf,1,1,1,1,2,0,2,1,2,1,1,1,0
15996000,15996000,5508000,28.142957499999998,112.9837115,0.04730806,-0.042613216,-0.044597574,0.07062475,-0.05049643,0.0,0.0006657202,0.0197369,-0.024710102,-0.03592695,-0.00074759685,0.032901313,0.09666292,0.06252869,0.03806942,-0.06388779,0.050990652,-0.06830747,50.78059,0.1119709,0.16977318,0.36382017,0.13855185,0.10098184,inf,inf,inf,inf,1,1,1,1,2,0,2,1,2,1,1,1,0
16496000,16496000,5508000,28.142957499999998,112.9837115,0.060029108,-0.04407815,-0.029259732,0.07062475,-0.05049643,0.0,0.010089263,0.014914162,-0.022093492,-0.0067383987,-0.00074759685,0.032901313,0.09666292,0.009563466,0.07055883,0.0011557712,0.051216062,-0.06830747,50.78059,0.11540547,0.16915764,0.35838237,0.13585833,0.09952046,inf,inf,inf,inf,1,1,1,1,2,0,2,1,2,1,1,1,0
16996000,16996000,5508000,28.142957499999998,112.9837115,0.064449474,-0.047430385,-0.019612925,0.07062475,-0.05049643,0.0,0.011720514,0.013592835,-0.01326982,0.0071435967,-0.00074759685,0.032901313,0.09666292,-0.010830931,0.05350525,-0.033722255,0.05128688,-0.06830747,50.78059,0.10979605,0.17708917,0.3582386,0.1411468,0.10051283,inf,inf,inf,inf,1,1,1,1,2,0,2,1,2,1,1,1,0
17504000,17504000,5508000,28.142957499999998,112.9837115,0.055840917,-0.047471564,-0.028618949,0.07062475,-0.05049643,0.0,-0.0005289746,0.013743097,-0.02145085,-0.0118493205,-0.00074759685,0.032901313,0.09666292,-0.022847634,0.024903914,-0.18520187,0.050653376,-0.06830747,50.78059,0.1043524,0.16849233,0.3520314,0.13060333,0.09669226,inf,inf,inf,inf,1,1,1,1,2,0,2,1,2,1,1,1,0
18004000,18004000,5508000,28.142957499999998,112.9837115,0.046825886,-0.046701405,-0.029721087,0.07062475,-0.05049643,0.0,-0.0067459377,0.018031254,-0.009725689,0.0021914626,-0.00074759685,0.032901313,0.09666292,0.013165676,-0.031013044,0.036094334,0.05054192,-0.06830747,50.78059,0.102219,0.17631641,0.35281911,0.13558419,0.09745533,inf,inf,inf,inf,1,1,1,1,2,0,2,1,2,1,1,1,0
18504000,18504000,5508000,28.142957499999998,112.9837115,0.037664484,-0.050096534,-0.03460086,0.07062475,-0.05049643,0.0,-0.013913645,0.010461027,-0.013371816,-0.0064441585,-0.00074759685,0.032901313,0.09666292,0.016386285,-0.03534039,-0.07628649,0.050638862,-0.06830747,50.78059,0.10152168,0.17470683,0.3490563,0.13231738,0.0955791,inf,inf,inf,inf,1,1,1,1,2,0,2,1,2,1,1,1,0
18992000,18980000,5508000,28.142957499999998,112.9837115,0.03841234,-0.05098731,-0.033923868,0.07062475,-0.05049643,0.0,-0.012536032,0.0039587254,-0.025075916,-0.01169194,-0.00074759685,0.032901313,0.09666292,-0.04650901,-0.06999875,-0.06126519,0.050382324,-0.06830747,50.78059,0.1096362,0.17237215,0.3468925,0.1283593,0.093841285,inf,inf,inf,inf,1,1,1,1,2,0,2,1,2,1,1,1,0
19499000,19484000,5508000,28.142957499999998,112.9837115,0.040585026,-0.03399004,-0.038272988,0.07062475,-0.05049643,0.0,-0.008746145,0.014240476,-0.019572482,-0.0065965364,-0.00074759685,0.032901313,0.09666292,0.046906397,-0.010127884,0.0074459235,0.050717875,-0.06830747,50.78059,0.10310061,0.172576,0.34655648,0.12625402,0.09292596,inf,inf,inf,inf,1,1,1,1,2,0,2,1,2,1,1,1,0
19996000,19988000,5508000,28.142957499999998,112.9837115,0.038464814,-0.028252687,-0.03708047,0.07062475,-0.05049643,0.0,-0.010214609,0.0104406625,-0.025336023,-0.00825799,-0.00074759685,0.032901313,0.09666292,-0.06946542,-0.07602634,0.028776934,0.050518878,-0.06830747,50.78059,0.1,0.1720049,0.3442334,0.12425328,0.091874585,inf,inf,inf,inf,1,1,1,1,2,0,2,1,2,1,1,1,0
20496000,20484000,5508000,28.142957499999998,112.9837115,0.05551986,-0.035472807,-0.03318468,0.07062475,-0.05049643,0.0,0.000873204,0.0024226885,-0.016576568,0.0052535934,-0.00074759685,0.032901313,0.09666292,-0.038315903,-0.06627352,-0.0073993574,0.05101387,-0.06830747,50.78059,0.10770194,0.17152284,0.3437833,0.122175746,0.09117831,inf,inf,inf,inf,1,1,1,1,2,0,2,1,2,1,1,1,0
20992000,20984000,5508000,28.142957499999998,112.9837115,0.05889153,-0.042375464,-0.03987302,0.07062475,-0.05049643,0.0,0.0043678386,-0.0033930524,-0.02257972,-0.010170539,-0.00074759685,0.032901313,0.09666292,-0.05735095,-0.004220005,0.07310323,0.050616432,-0.06830747,50.78059,0.1,0.1710272,0.3417976,0.120430164,0.09049873,inf,inf,inf,inf,1,1,1,1,2,0,2,1,2,1,1,1,0
21496000,21484000,5508000,28.142957499999998,112.9837115,0.060026128,-0.0497948,-0.04815208,0.07062475,-0.05049643,0.0,0.004529739,-0.015420699,-0.029589366,-0.017102052,-0.00074759685,0.032901313,0.09666292,0.04350249,0.018539488,-0.0143907955,0.049979646,-0.06830747,50.78059,0.10817665,0.17058548,0.3415692,0.118872724,0.09010793,inf,inf,inf,inf,1,1,1,1,2,0,2,1,2,1,1,1,0
21998000,21990000,5508000,28.142957499999998,112.9837115,0.059547152,-0.060584623,-0.053171344,0.07062475,-0.05049643,0.0,0.0034889234,-0.024347963,-0.031280506,-0.015130265,-0.00074759685,0.032901313,0.09666292,-0.016600002,0.029090187,0.033806074,0.04943358,-0.06830747,50.78059,0.106200725,0.17002565,0.3414295,0.11726473,0.0898086,inf,inf,inf,inf,1,1,1,1,2,0,2,1,2,1,1,1,0
22494000,22462000,5508000,28.142957499999998,112.9837115,0.058240063,-0.07018532,-0.05421617,0.07062475,-0.05049643,0.0,-0.0027766074,-0.027483188,-0.024666848,-0.004946389,-0.00074759685,0.032901313,0.09666292,-0.006723552,-0.06566545,0.057896595,0.049224533,-0.06830747,50.78059,0.10696384,0.1673815,0.33991492,0.114412524,0.089030586,inf,inf,inf,inf,1,1,1,1,2,0,2,1,2,1,1,1,0
23002000,23002000,5508000,28.142957499999998,112.9837115,0.06047919,-0.07323853,-0.05102796,0.07062475,-0.05049643,0.0,-0.0033997924,-0.026371004,-0.024855027,-0.0023599248,-0.00074759685,0.032901313,0.09666292,-0.053969156,-0.09142429,-0.15066376,0.049001843,-0.06830747,50.78059,0.10383105,0.16725194,0.33794186,0.11534965,0.08513737,inf,inf,inf,inf,1,1,1,1,2,0,2,1,2,1,1,1,0
23498000,23486000,5508000,28.142957499999998,112.9837115,0.066100925,-0.056721427,-0.055620715,0.07062475,-0.05049643,0.0,0.0037332515,-0.012655642,-0.022537421,-0.0047329455,-0.00074759685,0.032901313,0.09666292,-0.043617386,0.07387827,0.1230305,0.049271952,-0.06830747,50.78059,0.1,0.16946469,0.33928794,0.113876574,0.08147674,inf,inf,inf,inf,1,1,1,1,2,0,2,1,2,1,1,1,0
23999000,23990000,5508000,28.142957499999998,112.9837115,0.065007865,-0.055238437,-0.0758124,0.07062475,-0.05049643,0.0,-0.00031326903,-0.010535642,-0.029700328,-0.02328433,-0.00074759685,0.032901313,0.09666292,-0.0734791,0.042213734,0.09097904,0.049661018,-0.06830747,50.78059,0.100285545,0.16901815,0.33903307,0.11283171,0.0797593,inf,inf,inf,inf,1,1,1,1,2,0,2,1,2,1,1,1,0
24498000,24490000,5508000,28.142957499999998,112.9837115,0.05462297,-0.054359674,-0.077770546,0.07062475,-0.05049643,0.0,-0.006112411,-0.0062494613,-0.037099913,-0.02016874,-0.00074759685,0.032901313,0.09666292,-0.016763648,-0.016026612,0.058985185,0.04960802,-0.06830747,50.78059,0.11175297,0.16843715,0.33718565,0.111856304,0.07940421,inf,inf,inf,inf,1,1,1,1,2,0,2,1,2,1,1,1,0
25006000,24994000,5508000,28.142957499999998,112.9837115,0.048056863,-0.057723332,-0.07273873,0.07062475,-0.05049643,0.0,-0.009629884,-0.016499026,-0.032655448,-0.0043558488,-0.00074759685,0.032901313,0.09666292,-0.02809631,-0.056439057,0.0997984,0.04965001,-0.06830747,50.78059,0.11288343,0.16791125,0.3369493,0.11134884,0.08010446,inf,inf,inf,inf,1,1,1,1,2,0,2,1,2,1,1,1,0
25498000,25490000,5508000,28.142957499999998,112.9837115,0.04907942,-0.0644518,-0.078639396,0.07062475,-0.05049643,0.0,-0.006091549,-0.020822003,-0.030628998,-0.00803579,-0.00074759685,0.032901313,0.09666292,0.01016384,0.0058606034,-0.048493963,0.049362313,-0.06830747,50.78059,0.1,0.16750698,0.3352286,0.11059632,0.08122631,inf,inf,inf,inf,1,1,1,1,2,0,2,1,2,1,1,1,0
25994000,25982000,5508000,28.142957499999998,112.9837115,0.062723644,-0.069240585,-0.08335442,0.07062475,-0.05049643,0.0,0.0033267671,-0.026278805,-0.021549456,-0.001154311,-0.00074759685,0.032901313,0.09666292,-0.06680045,0.030328972,0.024151055,0.048838843,-0.06830747,50.78059,0.110138714,0.16379815,0.3330884,0.10905398,0.08109802,inf,inf,inf,inf,1,1,1,1,2,0,2,1,2,1,1,1,0
26495000,26495000,5508000,28.142957499999998,112.9837115,0.06995777,-0.07292388,-0.07740974,0.07062475,-0.05049643,0.0,0.0079582725,-0.025909396,-0.02040342,0.002371509,-0.00074759685,0.032901313,0.09666292,0.031791374,0.030758109,-0.037242655,0.04900015,-0.06830747,50.78059,0.10033852,0.171354,0.33459058,0.11308917,0.07918345,inf,inf,inf,inf,1,1,1,1,2,0,2,1,2,1,1,1,0
26994000,26994000,5508000,28.142957499999998,112.9837115,0.07562196,-0.08226129,-0.07020845,0.07062475,-0.05049643,0.0,0.009571061,-0.031880237,-0.0106953615,0.012692545,-0.00074759685,0.032901313,0.09666292,0.06734497,0.011664232,0.08315965,0.048957884,-0.06830747,50.78059,0.10236778,0.16737425,0.3337094,0.10918028,0.075743176,inf,inf,inf,inf,1,1,1,1,2,0,2,1,2,1,1,1,0
27495000,27490000,5508000,28.142957499999998,112.9837115,0.078080416,-0.083948374,-0.07402669,0.07062475,-0.05049643,0.0,0.009263527,-0.028631905,-0.00957088,0.0045321523,-0.00074759685,0.032901313,0.09666292,0.005803856,0.020584205,0.03061976,0.048953168,-0.06830747,50.78059,0.104706615,0.16599503,0.33319908,0.12664828,0.07452411,inf,inf,inf,inf,1,1,1,1,2,0,2,1,2,1,1,1,0
27994000,27994000,5508000,28.142957499999998,112.9837115,0.063698,-0.0736495,-0.07549957,0.07062475,-0.05049643,0.0,-0.009580963,-0.0050470526,-0.012759674,-0.0016970858,-0.00074759685,0.032901313,0.09666292,-0.08136228,0.029144429,0.0236826,0.048599526,-0.06830747,50.78059,0.1061795,0.16660891,0.3320056,0.16960248,0.0749535,inf,inf,inf,inf,1,1,1,1,2,0,2,1,2,1,1,1,0
28507000,28507000,5508000,28.142957499999998,112.9837115,0.065734655,-0.053695045,-0.075647086,0.07062475,-0.05049643,0.0,0.001964195,0.023354782,-0.004013963,0.007904508,-0.00074759685,0.032901313,0.09666292,0.046522696,-0.015100889,0.02623908,0.04860538,-0.06830747,50.78059,0.10632701,0.1678815,0.33087644,0.17105709,0.07636259,inf,inf,inf,inf,1,1,1,1,2,0,2,1,2,1,1,1,0
28994000,28994000,5508000,28.142957499999998,112.9837115,0.06118395,-0.038479418,-0.07254762,0.07062475,-0.05049643,0.0,-2.5351706e-05,0.02100789,-0.006276252,0.0046396814,-0.00074759685,0.032901313,0.09666292,-0.045374997,-0.029788237,-0.15270057,0.04875622,-0.06830747,50.78059,0.10322755,0.16742246,0.33048648,0.15710609,0.07801976,inf,inf,inf,inf,1,1,1,1,2,0,2,1,2,1,1,1,0
29507000,29471000,5508000,28.142957499999998,112.9837115,0.06379964,-0.04678799,-0.07634479,0.07062475,-0.05049643,0.0,0.0056722527,0.008403284,0.0005253817,0.0046516284,-0.00074759685,0.032901313,0.09666292,0.03920635,-0.027408795,-0.040050592,0.04920951,-0.06830747,50.78059,0.107024714,0.17331594,0.33182678,0.15262717,0.08068867,inf,inf,inf,inf,1,1,1,1,2,0,2,1,2,1,1,1,0
29999000,29966000,5508000,28.142957499999998,112.9837115,0.061602585,-0.054605156,-0.07726792,0.07062475,-0.05049643,0.0,0.0071353763,0.0070990804,0.008560211,0.0074582426,-0.00074759685,0.032901313,0.09666292,0.02827982,-0.054869667,-0.0024427262,0.048916712,-0.06830747,50.78059,0.10794785,0.17295583,0.3302443,0.14039949,0.08247785,inf,inf,inf,inf,1,1,1,1,2,0,2,1,2,1,1,1,0
30499000,30467000,5508000,28.142957499999998,112.9837115,0.066031836,-0.063039094,-0.07791673,0.07062475,-0.05049643,0.0,0.007993188,1.8927902e-05,0.0063320827,0.0045123356,-0.00074759685,0.032901313,0.09666292,-0.07411231,-0.07676663,0.053307038,0.038481727,-0.06830747,50.78059,0.10859665,0.17288007,0.33072656,0.13057242,0.08431803,inf,inf,inf,inf,1,1,1,1,2,0,2,1,2,1,1,1,0
30999000,30972000,5508000,28.142957499999998,112.9837115,0.05964191,-0.06348255,-0.08522958,0.07062475,-0.05049643,0.0,-0.0070840237,0.008534013,-0.007027571,-0.0116076935,-0.00074759685,0.032901313,0.09666292,-0.01972502,-0.011487872,-0.20382306,0.012883135,-0.06830747,50.78059,0.11590951,0.17232047,0.3298764,0.122511946,0.08574957,inf,inf,inf,inf,1,1,1,1,2,0,2,1,2,1,1,1,0
31495000,31495000,5508000,28.142957499999998,112.9837115,0.05776649,-0.052379943,-0.13958752,0.07062475,-0.05049643,0.0,-0.0010169592,0.019618593,-0.1988679,-0.19878003,-0.00074759685,0.032901313,0.09666292,0.06303018,0.038769163,-0.07427483,-0.012684234,-0.06830747,50.78059,0.17026745,0.17308393,0.33005562,0.11333083,0.08527988,inf,inf,inf,inf,1,1,1,1,2,0,2,1,2,1,1,1,0
31995000,31995000,5508000,28.142957499999998,112.9837115,0.06284541,-0.046697766,-0.2498129,0.07062475,-0.05049643,0.0,0.0019659414,0.009655589,-0.24916482,-0.24360126,-0.00074759685,0.032901313,0.09666292,-0.034356676,-0.05864978,-0.113141716,-0.007000025,-0.06830747,50.78059,0.28049284,0.17192766,0.33121866,0.113505095,0.08182648,inf,inf,inf,inf,1,1,1,1,2,0,2,1,2,1,1,1,0
32495000,32495000,5508000,28.142957499999998,112.9837115,0.059692435,-0.06344028,-0.3701539,0.07062475,-0.05049643,0.0,-0.0038414877,-0.0035350607,-0.25405747,-0.24376412,-0.00074759685,0.032901313,0.09666292,-0.028787037,0.02449679,0.06940681,-0.0033727132,-0.06830747,50.78059,0.40083385,0.17025828,0.33036786,0.12575486,0.08024202,inf,inf,inf,inf,1,1,1,1,2,0,2,1,2,1,1,0,0
32999000,32999000,5508000,28.142957499999998,112.9837115,0.051580813,-0.07923603,-0.48441696,0.07062475,-0.05049643,0.0,0.00055374345,0.009480127,-0.23311552,-0.21991031,-0.00074759685,0.032901313,0.09666292,-0.0484829,0.012452797,0.1374781,-0.0034095615,-0.06830747,50.78059,0.5150969,0.169859,0.3313206,0.13365722,0.0802257,inf,inf,inf,inf,1,1,1,1,2,0,2,1,2,1,1,0,0
33495000,33495000,5508000,28.142957499999998,112.9837115,0.056052983,-0.07968761,-0.59703153,0.07062475,-0.05049643,0.0,0.010119305,0.024552375,-0.2010116,-0.19672658,-0.00074759685,0.032901313,0.09666292,-0.021514699,0.09993632,0.10819267,-0.00328079,-0.06830747,50.78059,0.6277115,0.16871226,0.3299081,0.13337322,0.080652624,inf,inf,inf,inf,1,1,1,1,2,0,2,1,2,1,1,0,0
33999000,33999000,5508000,28.142957499999998,112.9837115,0.06200872,-0.06439319,-0.68263876,0.07062475,-0.05049643,0.0,0.0033524546,0.02171838,-0.15417767,-0.14881116,-0.00074759685,0.032901313,0.09666292,-0.028054817,-0.048584193,-0.111642286,-0.0027292557,-0.06830747,50.78059,0.7133187,0.16943528,0.33081862,0.13063283,0.08197986,inf,inf,inf,inf,1,1,1,1,2,0,2,1,2,1,1,0,0
34499000,34499000,5508000,28.142957499999998,112.9837115,0.05861927,-0.0492189,-0.7532997,0.07062475,-0.05049643,0.0,-0.0032166846,0.013029665,-0.13124494,-0.1264512,-0.00074759685,0.032901313,0.09666292,0.002837862,-0.030132089,0.17414613,-0.0018375491,-0.06830747,50.78059,0.78397965,0.16947816,0.32987377,0.12596056,0.08322977,inf,inf,inf,inf,1,1,1,1,2,0,2,1,2,1,1,0,0
34991000,34991000,5508000,28.142957499999998,112.9837115,0.06488506,-0.035363656,-0.8129157,0.07062475,-0.05049643,0.0,0.00518034,-0.0015705526,-0.098135464,-0.0961671,-0.00074759685,0.032901313,0.09666292,-0.06734479,-0.03691661,0.13656262,-0.0017664651,-0.06830747,50.78059,0.8435956,0.16843598,0.33003363,0.12030224,0.08433741,inf,inf,inf,inf,1,1,1,1,2,0,2,1,2,1,1,0,0
35497000,35497000,5508000,28.142957499999998,112.9837115,0.0828466,-0.025752904,-0.7337027,0.07062475,-0.05049643,0.0,0.0069811787,-0.033149384,0.13331154,0.14990403,-0.00074759685,0.032901313,0.09666292,-0.022051591,-0.099351756,-0.56490296,-0.0019357137,-0.06830747,50.78059,0.76438266,0.1683649,0.33066753,0.115800165,0.08556175,inf,inf,inf,inf,1,1,1,1,2,0,2,1,2,1,1,0,0
35993000,35993000,5508000,28.142957499999998,112.9837115,0.0880213,-0.045290425,-0.7034843,0.07062475,-0.05049643,0.0,-0.0052529355,-0.06471839,0.038590834,0.043892488,-0.00074759685,0.032901313,0.09666292,0.028717337,-0.023775889,-0.045293007,-0.0018521944,-0.06830747,50.78059,0.73416424,0.16784628,0.32988405,0.11228879,0.086453624,inf,inf,inf,inf,1,1,1,1,2,0,2,1,2,1,1,0,0
36497000,36497000,5508000,28.142957499999998,112.9837115,0.084068574,-0.06852411,-0.7027407,0.07062475,-0.05049643,0.0,-0.009220663,-0.058370847,0.018022647,0.011202019,-0.00074759685,0.032901313,0.09666292,-0.022274865,-0.04986587,-0.032727603,-0.0018999317,-0.06830747,50.78059,0.73342067,0.1672322,0.33065432,0.10944261,0.08724457,inf,inf,inf,inf,1,1,1,1,2,0,2,1,2,1,1,0,0
37001000,37001000,5508000,28.142957499999998,112.9837115,0.06899186,-0.07981392,-0.71103185,0.07062475,-0.05049643,0.0,-0.013670344,-0.03382115,0.012233162,-0.0018593211,-0.00074759685,0.032901313,0.09666292,0.03350993,-0.05378747,0.090234905,-0.0015122643,-0.06830747,50.78059,0.7417118,0.16727874,0.33043754,0.10750488,0.0879465,inf,inf,inf,inf,1,1,1,1,2,0,2,1,2,1,1,0,0
37501000,37501000,5508000,28.142957499999998,112.9837115,0.050700925,-0.08380095,-0.700173,0.07062475,-0.05049643,0.0,-0.00996741,-0.0243188,0.0035472417,0.0022741728,-0.00074759685,0.032901313,0.09666292,0.027220659,-0.026383705,-0.2507642,-0.0011628077,-0.06830747,50.78059,0.73085296,0.16654105,0.3313182,0.10546334,0.08837763,inf,inf,inf,inf,1,1,1,1,2,0,2,1,2,1,1,0,0
38005000,38005000,5508000,28.142957499999998,112.9837115,0.04753186,-0.07755657,-0.6900566,0.07062475,-0.05049643,0.0,0.012675325,-0.016093923,-0.026101984,-0.014001656,-0.00074759685,0.032901313,0.09666292,0.032452337,0.007920046,-0.12742448,-0.0014781189,-0.06830747,50.78059,0.72073656,0.16581778,0.33074677,0.10464454,0.08856462,inf,inf,inf,inf,1,1,1,1,2,0,2,1,2,1,1,0,0
38496000,38496000,5508000,28.142957499999998,112.9837115,0.051576503,-0.07868254,-0.6718741,0.07062475,-0.05049643,0.0,0.013758749,-0.010597018,0.027615998,0.042712394,-0.00074759685,0.032901313,0.09666292,0.07083444,-0.030817123,-0.068103634,-0.0010002437,-0.06830747,50.78059,0.70255405,0.17160605,0.33300516,0.10761542,0.09034801,inf,inf,inf,inf,1,1,1,1,2,0,2,1,2,1,1,0,0
38999000,38999000,5508000,28.142957499999998,112.9837115,0.046019476,-0.07688548,-0.6638856,0.07062475,-0.05049643,0.0,0.007930803,-0.0038078248,0.019654112,0.027021535,-0.00074759685,0.032901313,0.09666292,-0.04207892,0.056546986,-0.07195025,-0.0011187781,-0.06830747,50.78059,0.69456553,0.17169265,0.3329586,0.10743912,0.09056612,inf,inf,inf,inf,1,1,1,1,2,0,2,1,2,1,1,0,0
39499000,39483000,5508000,28.142957499999998,112.9837115,0.03475094,-0.08341072,-0.6599635,0.07062475,-0.05049643,0.0,0.0022032643,-0.005591273,0.010179058,0.012276592,-0.00074759685,0.032901313,0.09666292,0.000992893,0.016455213,0.09163841,-0.0013030841,-0.06830747,50.78059,0.6906434,0.16977413,0.33294812,0.1064211,0.09023794,inf,inf,inf,inf,1,1,1,1,2,0,2,1,2,1,1,0,0
39998000,39979000,5508000,28.142957499999998,112.9837115,0.027345944,-0.08834461,-0.65674746,0.07062475,-0.05049643,0.0,0.0032037213,-0.001663792,0.0078081666,0.0064169057,-0.00074759685,0.032901313,0.09666292,0.024413617,-0.003837866,0.023362225,-0.001150511,-0.06830747,50.78059,0.6874274,0.16945843,0.33386844,0.106305204,0.090289846,inf,inf,inf,inf,1,1,1,1,2,0,2,1,2,1,1,0,0
40499000,40494000,5508000,28.142957499999998,112.9837115,0.019471724,-0.09255228,-0.6508825,0.07062475,-0.05049643,0.0,0.0018994487,-0.004755052,0.007349416,0.010017512,-0.00074759685,0.032901313,0.09666292,0.016907105,0.063143596,-0.015918698,-0.0015369903,-0.06830747,50.78059,0.6815624,0.16777055,0.3337908,0.10831645,0.08799946,inf,inf,inf,inf,1,1,1,1,2,0,2,1,2,1,1,0,0
40998000,40991000,5508000,28.142957499999998,112.9837115,0.022375928,-0.09176381,-0.634179,0.07062475,-0.05049643,0.0,0.0036604293,0.0021700745,0.009881513,0.019276995,-0.00074759685,0.032901313,0.09666292,0.014284665,-0.0054920707,0.100220546,-0.0011632618,-0.06830747,50.78059,0.66485894,0.16979596,0.33436584,0.11678318,0.0831388,inf,inf,inf,inf,1,1,1,1,2,0,2,1,2,1,1,0,0
41503000,41495000,5508000,28.142957499999998,112.9837115,0.024502853,-0.090013124,-0.62557906,0.07062475,-0.05049643,0.0,0.0025543459,-0.000295437,0.008063167,0.016375175,-0.00074759685,0.032901313,0.09666292,0.0236476,0.055893205,-0.021787358,-0.0014539873,-0.06830747,50.78059,0.656259,0.16941789,0.33476883,0.12604801,0.08048909,inf,inf,inf,inf,1,1,1,1,2,0,2,1,2,1,1,0,0
41995000,41971000,5508000,28.142957499999998,112.9837115,0.0148211755,-0.08540305,-0.6318817,0.07062475,-0.05049643,0.0,0.0021905263,-0.0012436422,0.0027664383,0.0010525917,-0.00074759685,0.032901313,0.09666292,0.03322422,-0.05207788,0.010833143,-0.0020164738,-0.06830747,50.78059,0.66256166,0.16707177,0.3352178,0.1277911,0.07930488,inf,inf,inf,inf,1,1,1,1,2,0,2,1,2,1,1,0,0
42495000,42475000,5508000,28.142957499999998,112.9837115,0.0089925025,-0.09027153,-0.6202936,0.07062475,-0.05049643,0.0,0.0014979324,-0.0028959655,0.005976546,0.013974392,-0.00074759685,0.032901313,0.09666292,-0.028601766,-0.010521978,0.07817055,-0.0016345893,-0.06830747,50.78059,0.65097356,0.1674073,0.33380347,0.12764129,0.079467535,inf,inf,inf,inf,1,1,1,1,2,0,2,1,2,1,1,0,0
42995000,42967000,5508000,28.142957499999998,112.9837115,0.009312177,-0.0916582,-0.59876347,0.07062475,-0.05049643,0.0,0.0058287363,0.00377431,0.0005060762,0.018378101,-0.00074759685,0.032901313,0.09666292,0.06412254,-0.081465065,0.038934868,-0.0015208863,-0.06830747,50.78059,0.6294434,0.16756003,0.3338856,0.12455303,0.08043909,inf,inf,inf,inf,1,1,1,1,2,0,2,1,2,1,1,0,0
43494000,43467000,5508000,28.142957499999998,112.9837115,0.00715429,-0.09232175,-0.584869,0.07062475,-0.05049643,0.0,0.0028525053,-0.00010256177,0.0070277695,0.02763441,-0.00074759685,0.032901313,0.09666292,0.06166213,-0.06896821,-0.07947161,-0.0012577336,-0.06830747,50.78059,0.61554897,0.1676938,0.33248913,0.12075583,0.08168451,inf,inf,inf,inf,1,1,1,1,2,0,2,1,2,1,1,0,0
43995000,43971000,5508000,28.142957499999998,112.9837115,0.0035524394,-0.09380637,-0.5762607,0.07062475,-0.05049643,0.0,-0.00078416493,-0.0023868976,-0.003198861,0.01513288,-0.00074759685,0.032901313,0.09666292,0.033076733,0.0022510912,0.116740346,-0.0011656152,-0.06830747,50.78059,0.6069406,0.16757748,0.33266634,0.11637827,0.083113834,inf,inf,inf,inf,1,1,1,1,2,0,2,1,2,1,1,0,0
44483000,44483000,5508000,28.142957499999998,112.9837115,0.008569746,-0.09707703,-0.57879996,0.07062475,-0.05049643,0.0,0.004228277,-0.0007223484,-0.0015036152,0.005073628,-0.00074759685,0.032901313,0.09666292,-0.0082868375,-0.031957928,0.037629154,-0.0011309017,-0.06830747,50.78059,0.6094799,0.16771275,0.33187196,0.1127456,0.08416453,inf,inf,inf,inf,1,1,1,1,2,0,2,1,2,1,1,0,0
44999000,44999000,5508000,28.142957499999998,112.9837115,0.021870637,-0.08853872,-0.6105232,0.07062475,-0.05049643,0.0,0.010752361,0.005668942,-0.004538413,-0.023856053,-0.00074759685,0.032901313,0.09666292,0.020455979,-0.037971996,0.013581476,-0.00075698266,-0.06830747,50.78059,0.64120317,0.1683983,0.33159974,0.10970517,0.080540225,inf,inf,inf,inf,1,1,1,1,2,0,2,1,2,1,1,0,0
45499000,45499000,5508000,28.142957499999998,112.9837115,0.019296184,-0.06673987,-0.6188748,0.07062475,-0.05049643,0.0,0.0010076057,0.007950493,-0.0006180965,-0.016464647,-0.00074759685,0.032901313,0.09666292,0.057983477,-0.10182727,-0.104135826,-0.00085369556,-0.06830747,50.78059,0.6495547,0.16673371,0.33150882,0.11357996,0.07881212,inf,inf,inf,inf,1,1,1,1,2,0,2,1,2,1,1,0,0
45990000,45990000,5508000,28.142957499999998,112.9837115,0.0016862218,-0.049099416,-0.61500067,0.07062475,-0.05049643,0.0,-0.006651426,0.0061098384,0.002099474,-0.0044476073,-0.00074759685,0.032901313,0.09666292,0.044620983,0.0035266422,-0.04973582,-0.0005956527,-0.06830747,50.78059,0.6456806,0.17327061,0.33322707,0.12320737,0.07984553,inf,inf,inf,inf,1,1,1,1,2,0,2,1,2,1,1,0,0
46499000,46499000,5508000,28.142957499999998,112.9837115,0.0004063261,-0.042654376,-0.61612535,0.07062475,-0.05049643,0.0,0.0057856645,0.0026176393,-0.0003256753,-0.00538773,-0.00074759685,0.032901313,0.09666292,0.016741447,-0.08366274,-0.03911834,-0.00047280718,-0.06830747,50.78059,0.6468053,0.17352654,0.3324287,0.12586416,0.08065664,inf,inf,inf,inf,1,1,1,1,2,0,2,1,2,1,1,0,0
46990000,46990000,5508000,28.142957499999998,112.9837115,0.0043992964,-0.045646504,-0.60985816,0.07062475,-0.05049643,0.0,0.008026238,-0.0043230057,0.0038147306,0.0050558876,-0.00074759685,0.032901313,0.09666292,0.03867083,-0.007680465,-0.040876675,-0.00077282573,-0.06830747,50.78059,0.6405381,0.17231028,0.33086026,0.1240093,0.08164846,inf,inf,inf,inf,1,1,1,1,2,0,2,1,2,1,1,0,0
47499000,47499000,5508000,28.142957499999998,112.9837115,0.00946151,-0.058570683,-0.6191858,0.07062475,-0.05049643,0.0,0.0064839306,-0.0061551756,-0.0018112184,-0.009007691,-0.00074759685,0.032901313,0.09666292,0.06251495,-0.032531396,0.053973865,-0.00045136106,-0.06830747,50.78059,0.64986575,0.17279714,0.33171344,0.12188397,0.083313085,inf,inf,inf,inf,1,1,1,1,2,0,2,1,2,1,1,0,0
47999000,47999000,5508000,28.142957499999998,112.9837115,0.0160478,-0.07686345,-0.63063407,0.07062475,-0.05049643,0.0,0.008235627,-0.0084266355,-0.0018082145,-0.012715954,-0.00074759685,0.032901313,0.09666292,-0.006663476,-0.016780261,0.14446303,-0.00014932247,-0.06830747,50.78059,0.661314,0.17241177,0.33076197,0.11857767,0.08468806,inf,inf,inf,inf,1,1,1,1,2,0,2,1,2,1,1,0,0
48503000,48483000,5508000,28.142957499999998,112.9837115,0.015927864,-0.075572036,-0.589394,0.07062475,-0.05049643,0.0,0.0001651659,-0.0012508815,0.36521748,0.3631264,-0.00074759685,0.032901313,0.09666292,0.021465173,-0.0045085084,2.3737576,0.0009426063,-0.06830747,50.78059,0.6200739,0.16921757,0.3296759,0.11277641,0.08372343,inf,inf,inf,inf,1,1,1,1,2,0,2,1,2,1,1,0,0
48995000,48983000,5508000,28.142957499999998,112.9837115,0.019241303,-0.07569963,-0.10686282,0.07062475,-0.05049643,0.0,0.011820091,-0.009167252,0.8680553,0.9165249,-0.00074759685,0.032901313,0.09666292,0.045399755,-0.10038871,-1.5799356,-0.0007562606,-0.06830747,50.78059,0.13754275,0.17069985,0.33117855,0.10909534,0.080364324,inf,inf,inf,inf,1,1,1,1,2,0,2,1,2,1,1,0,0
49495000,49483000,5508000,28.142957499999998,112.9837115,0.02601062,-0.088488765,0.06016199,0.07062475,-0.05049643,0.0,0.0075276955,-0.011718383,0.045411304,0.034622267,-0.00074759685,0.032901313,0.09666292,-0.047595695,0.034135424,0.01782365,-0.0017610735,-0.06830747,50.78059,0.1,0.17008424,0.33019233,0.11499845,0.07843651,inf,inf,inf,inf,1,1,1,1,2,0,2,1,2,1,1,0,0
49995000,49983000,5508000,28.142957499999998,112.9837115,0.032463737,-0.08565193,0.03766045,0.07062475,-0.05049643,0.0,0.009627572,-0.0148088,0.031718407,-0.004306064,-0.00074759685,0.032901313,0.09666292,0.019611616,0.019720228,-0.11991802,-0.0015001431,-0.06830747,50.78059,0.1,0.1696466,0.33064213,0.11468767,0.0760771,inf,inf,inf,inf,1,1,1,1,2,0,2,1,2,1,1,0,0
50503000,50503000,5508000,28.142957499999998,112.9837115,0.03029983,-0.08278879,0.021939157,0.07062475,-0.05049643,0.0,0.001069196,-0.007191094,0.018184727,-0.022660363,-0.00074759685,0.032901313,0.09666292,0.031323005,0.058166943,0.017538665,-0.0013129239,-0.06830747,50.78059,0.10501163,0.17082754,0.3304046,0.11751246,0.075168,inf,inf,inf,inf,1,1,1,1,2,0,2,1,2,1,1,0,0
50991000,50991000,5508000,28.142957499999998,112.9837115,0.034442533,-0.08574608,0.024402149,0.07062475,-0.05049643,0.0,0.00085782,-0.00651055,0.017885096,-0.009903515,-0.00074759685,0.032901313,0.09666292,0.011520638,0.072221234,0.07270369,-0.0008249667,-0.06830747,50.78059,0.103991084,0.1696565,0.33034647,0.11545672,0.07389823,inf,inf,inf,inf,1,1,1,1,2,0,2,1,2,1,1,0,0
51491000,51491000,5508000,28.142957499999998,112.9837115,0.037296325,-0.09595963,0.026732428,0.07062475,-0.05049643,0.0,-0.0033434567,-0.0051918537,0.01948599,-0.0026940284,-0.00074759685,0.032901313,0.09666292,-0.07565576,-0.03662966,-0.110366374,-0.00082435866,-0.06830747,50.78059,0.10273029,0.16925484,0.32918856,0.11649564,0.074207954,inf,inf,inf,inf,1,1,1,1,2,0,2,1,2,1,1,0,0
51995000,51995000,5508000,28.142957499999998,112.9837115,0.040345557,-0.09554355,0.013984809,0.07062475,-0.05049643,0.0,0.0052388418,0.0008554448,0.0061821504,-0.021226471,-0.00074759685,0.032901313,0.09666292,-0.0011202869,0.03296366,0.12718698,-0.00029233223,-0.06830747,50.78059,0.11547791,0.1690216,0.3295054,0.1171906,0.07565584,inf,inf,inf,inf,1,1,1,1,2,0,2,1,2,1,1,0,0
52503000,52503000,5508000,28.142957499999998,112.9837115,0.03846186,-0.0867423,0.0063975696,0.07062475,-0.05049643,0.0,0.0025005883,0.0074553946,-0.0080061555,-0.029458877,-0.00074759685,0.032901313,0.09666292,0.061119895,-0.05376061,0.101331614,0.00013363911,-0.06830747,50.78059,0.10244239,0.1695186,0.328838,0.11294814,0.07774098,inf,inf,inf,inf,1,1,1,1,2,0,2,1,2,1,1,1,0
53003000,53003000,5508000,28.142957499999998,112.9837115,0.03909983,-0.07886832,-0.00457081,0.07062475,-0.05049643,0.0,2.8749957e-05,0.014060969,-0.009502638,-0.026533734,-0.00074759685,0.032901313,0.09666292,0.043064132,-0.042332288,0.030098481,0.00011023189,-0.06830747,50.78059,0.10561091,0.16907375,0.3278946,0.109211825,0.07983994,inf,inf,inf,inf,1,1,1,1,2,0,2,1,2,1,1,1,0
