timestamp,timestamp_sample,ref_timestamp,ref_lat,ref_lon,x,y,z,delta_xy[0],delta_xy[1],delta_z,vx,vy,vz,z_deriv,delta_vxy[0],delta_vxy[1],delta_vz,ax,ay,az,heading,delta_heading,ref_alt,dist_bottom,eph,epv,evh,evv,vxy_max,vz_max,hagl_min,hagl_max,xy_valid,z_valid,v_xy_valid,v_z_valid,xy_reset_counter,z_reset_counter,vxy_reset_counter,vz_reset_counter,heading_reset_counter,xy_global,z_global,dist_bottom_valid,dist_bottom_sensor_bitfield
804000,804000,0,nan,nan,2.7292119e-19,-6.922716e-19,5.2554853e-08,0.0,0.0,0.0,6.659668e-17,-1.5983205e-16,2.1477968e-05,2.1643673e-05,8.326673e-17,-2.220446e-16,0.0,-3.4694467e-15,1.3877787e-14,0.004969537,0.121145904,0.121145904,nan,0.10000031,0.70622146,3.5000029,7.071068,0.45001808,inf,inf,inf,inf,0,1,0,1,1,0,1,0,1,0,0,1,2
992000,992000,0,nan,nan,-1.0128288e-16,3.3955566e-16,0.0002446955,0.0,0.0,0.0,-9.697005e-16,3.3505947e-15,0.0012198034,0.0013676083,8.326673e-17,-2.220446e-16,0.0,-3.4694467e-15,1.3877787e-14,0.004969537,0.121145904,0.121145904,nan,0.10139845,1.3338491,1.7505512,7.0761404,0.451472,inf,inf,inf,inf,0,1,0,1,1,0,1,0,1,0,0,1,2
1489000,1489000,0,nan,nan,7.547395e-16,-1.1347875e-14,-0.004395103,0.0,0.0,0.0,5.038993e-15,-5.6364252e-14,0.0039500147,-0.0011207474,8.326673e-17,-2.220446e-16,0.0,1.2490009e-14,-1.2212453e-13,0.004963577,0.121145904,0.121145904,nan,0.1,0.6472016,0.9450964,1.7131747,0.464292,inf,inf,inf,inf,0,1,0,1,1,0,1,0,1,0,0,1,2
1992000,1992000,0,nan,nan,1.3780209e-15,-1.9178017e-14,-0.0050961813,0.0,0.0,0.0,-6.732072e-15,3.7387817e-14,0.006506793,0.0014044888,8.326673e-17,-2.220446e-16,0.0,2.7755574e-14,-2.3592237e-13,0.0049546356,0.121145904,0.121145904,nan,0.1,0.6697359,0.7610318,1.3043329,0.49152783,inf,inf,inf,inf,0,1,0,1,1,0,1,0,1,0,0,1,2
2501000,2501000,0,nan,nan,-7.341142e-15,5.0485098e-14,-0.0010681849,0.0,0.0,0.0,-2.7978286e-14,2.0920299e-13,0.009123836,0.006311529,8.326673e-17,-2.220446e-16,0.0,-1.2628787e-13,1.010303e-12,0.005029142,0.121145904,0.121145904,nan,0.100629985,0.5459089,0.71359843,1.3854208,0.5210712,inf,inf,inf,inf,0,1,0,1,1,0,1,0,1,0,0,1,2
2996000,2996000,0,nan,nan,-1.3950407e-14,1.06590355e-13,0.004276702,0.0,0.0,0.0,5.5578143e-15,-6.03055e-14,0.011477696,0.009675345,8.326673e-17,-2.220446e-16,0.0,3.37032e-14,-3.0134627e-13,0.0049525076,0.121145904,0.121145904,nan,0.1,0.66232467,0.73242396,1.5152471,0.54383916,inf,inf,inf,inf,0,1,0,1,1,0,1,0,1,0,0,1,2
3492000,3492000,0,nan,nan,1.2950067e-14,-1.0889688e-13,0.007985706,0.0,0.0,0.0,8.8164556e-14,-7.2889026e-13,0.012573566,0.009203894,8.326673e-17,-2.220446e-16,0.0,1.5942108e-12,-1.3114509e-11,0.00421144,0.121145904,0.121145904,nan,0.1,0.7510348,0.7558439,1.4862959,0.5483159,inf,inf,inf,inf,0,1,0,1,1,0,1,0,1,0,0,1,2
3996000,3996000,0,nan,nan,-4.701266e-14,3.8548372e-13,0.0029138715,0.0,0.0,0.0,1.6744723e-13,-1.3824869e-12,0.009359897,-0.00040919727,8.326673e-17,-2.220446e-16,0.0,2.0053401e-12,-1.648681e-11,0.004016794,0.121145904,0.121145904,nan,0.1,0.5756972,0.7936797,1.1432904,0.54606986,inf,inf,inf,inf,0,1,0,1,1,0,1,0,1,0,0,1,2
4496000,4484000,0,nan,nan,-2.570757e-13,2.1091794e-12,-0.00016653721,0.0,0.0,0.0,5.699327e-14,-4.7893737e-13,0.0075680064,-0.003269671,8.326673e-17,-2.220446e-16,0.0,2.9797595e-12,-2.450421e-11,0.0035560557,0.121145904,0.121145904,nan,0.1,0.6335418,0.81729805,1.1581402,0.5336795,inf,inf,inf,inf,0,1,0,1,1,0,1,0,1,0,0,1,2
5000000,4984000,0,nan,nan,-3.121528e-13,-1.6507962e-11,4.105564e-05,0.0,0.0,0.0,2.298191e-13,-3.179619e-09,0.0073046405,-0.0016846844,8.326673e-17,-2.220446e-16,0.0,5.1746797e-12,-4.250766e-11,0.0025145707,0.121145904,0.121145904,nan,0.1,0.51548535,0.81037277,0.94973075,0.507308,inf,inf,inf,inf,0,1,0,1,1,0,1,0,1,0,0,1,2
5493000,5472000,0,nan,nan,5.5824304e-11,-1.1252435e-05,-0.0034948837,0.0,0.0,0.0,4.1687587e-10,-6.486673e-05,0.0052277553,-0.0050185164,8.326673e-17,-2.220446e-16,0.0,1.9017097e-09,-0.00021083676,0.0019082798,0.121164024,0.121145904,nan,0.1,0.564985,0.8142818,0.94495976,0.4881438,inf,inf,inf,inf,0,1,0,1,1,0,1,0,1,0,0,1,2
6000000,5984000,5588000,40.1540302,116.2594857,1.0630278e-09,-8.765242e-05,-0.011879412,0.0,0.0,0.0,4.0957993e-09,-0.00027433105,0.0011933064,-0.012864944,8.326673e-17,-2.220446e-16,0.0,9.456531e-09,-0.00046575617,0.0007068738,0.12118822,0.121145904,49.92164,0.1,0.62221074,0.79994196,0.931448,0.46279496,inf,inf,inf,inf,0,1,0,1,1,0,1,0,1,1,1,1,0
6496000,6496000,5588000,40.1540302,116.2594857,4.001694e-09,-0.00021079883,-0.013347202,0.0,0.0,0.0,1.1437057e-08,-0.0005151641,0.00108221,-0.007864371,8.326673e-17,-2.220446e-16,0.0,1.839288e-08,-0.00064316334,0.00026635823,0.12121139,0.121145904,49.92164,0.1025711,0.5086687,0.80028695,0.7433205,0.44552132,inf,inf,inf,inf,0,1,0,1,1,0,1,0,1,1,1,1,0
7001000,7001000,5588000,40.1540302,116.2594857,-1.8961421e-06,-0.00034815946,-0.008285676,0.0,0.0,0.0,-1.9913261e-05,-0.000737723,0.003256733,0.0005900825,8.326673e-17,-2.220446e-16,0.0,-9.212927e-05,-0.0007648292,0.0017076731,-0.0041620317,-0.12539652,49.92164,0.1,0.5522246,0.78553385,0.65224636,0.42296362,inf,inf,inf,inf,0,1,0,1,1,0,1,0,2,1,1,1,0
7496000,7496000,5588000,40.1540302,116.2594857,-2.2377308e-05,-0.0004941019,-0.0071158945,0.0,0.0,0.0,-6.508304e-05,-0.000977501,0.0034493133,0.0007254892,8.326673e-17,-2.220446e-16,0.0,-8.216826e-05,-0.0009434198,0.001819006,-0.004163404,-0.12539652,49.92164,0.1,0.4312727,0.7760918,0.49027833,0.40474394,inf,inf,inf,inf,0,1,0,1,1,0,1,0,2,1,1,1,0
7992000,7992000,5588000,40.1540302,116.2594857,-4.5037916e-05,-0.0006752765,-0.003775822,0.0,0.0,0.0,-8.7210814e-05,-0.0012471712,0.0047068023,0.004821596,8.326673e-17,-2.220446e-16,0.0,-6.193398e-05,-0.0010463218,0.0009816139,-0.004166178,-0.12539652,49.92164,0.1038511,0.45516723,0.7587065,0.565005,0.38364032,inf,inf,inf,inf,0,1,0,1,1,0,1,0,2,1,1,1,0
8492000,8492000,5588000,40.1540302,116.2594857,-5.6188368e-05,-0.0008559859,0.0027391799,0.0,0.0,0.0,-8.049225e-05,-0.0014041757,0.006738535,0.009065771,8.326673e-17,-2.220446e-16,0.0,-2.9064733e-05,-0.0010191523,0.0015096738,-0.0041630697,-0.12539652,49.92164,0.10000987,0.41080382,0.7569503,0.55731565,0.3691097,inf,inf,inf,inf,0,1,0,1,1,0,1,0,2,1,1,1,0
9004000,9004000,5588000,40.1540302,116.2594857,-4.358989e-05,-0.0008703834,0.0051984065,0.0,0.0,0.0,-4.2169417e-05,-0.0013185408,0.006978089,0.0070744595,8.326673e-17,-2.220446e-16,0.0,9.981315e-06,-0.00088182255,0.0025193607,-0.0041539418,-0.12539652,49.92164,0.1,0.4578155,0.7409736,0.562554,0.34997955,inf,inf,inf,inf,0,1,0,1,1,0,1,0,2,1,1,1,0
9493000,9493000,5588000,40.1540302,116.2594857,-1.7659318e-05,-0.00079137355,0.0026385107,0.0,0.0,0.0,1.9997183e-06,-0.0011768495,0.0054228613,0.0007751603,8.326673e-17,-2.220446e-16,0.0,3.689579e-05,-0.0008005529,0.0022547317,-0.0041416413,-0.12539652,49.92164,0.1,0.48676473,0.7202951,0.5266548,0.33059025,inf,inf,inf,inf,0,1,0,1,1,0,1,0,2,1,1,1,0
9996000,9996000,5588000,40.1540302,116.2594857,1.1246535e-05,-0.0006975353,0.00524422,0.0,0.0,0.0,4.043569e-05,-0.0010840502,0.0060006445,0.0035912634,8.326673e-17,-2.220446e-16,0.0,5.3798685e-05,-0.0007873631,0.00040419397,-0.00412875,-0.12539652,49.92164,0.100989,0.41904864,0.7179009,0.41287863,0.31752583,inf,inf,inf,inf,0,1,0,1,1,0,1,0,2,1,1,1,0
10496000,10496000,5588000,40.1540302,116.2594857,-0.012682054,0.012858249,-0.0003534752,-2.1986527e-06,0.0004923133,0.0,-0.023432102,0.026220812,-0.0063109766,-0.0046759024,-0.030031089,0.020948336,-0.036324367,0.00435721,-0.0011063274,-6.6123896e-05,-0.0041133347,-0.12539652,49.92164,0.1,0.25952256,0.622621,0.17877686,0.15876018,inf,inf,inf,inf,1,1,1,1,2,0,2,1,2,1,1,1,0
10996000,10996000,5588000,40.1540302,116.2594857,-0.007272524,0.022332061,-0.020229377,-2.1986527e-06,0.0004923133,0.0,-0.0024342954,0.026848027,-0.0186916,-0.030400513,-0.030031089,0.020948336,-0.036324367,0.014962918,-0.0018160577,0.0011686768,-0.004063956,-0.12539652,49.92164,0.1,0.212232,0.5498127,0.16776036,0.12912749,inf,inf,inf,inf,1,1,1,1,2,0,2,1,2,1,1,1,0
11496000,11496000,5588000,40.1540302,116.2594857,0.0077755232,0.03175449,-0.0045496942,-2.1986527e-06,0.0004923133,0.0,0.02086733,0.032623414,-0.0035984365,0.008916976,-0.030031089,0.020948336,-0.036324367,0.025008842,0.006547341,0.001807697,-0.0039370605,-0.12539652,49.92164,0.105575226,0.19196303,0.50553447,0.17458668,0.11583183,inf,inf,inf,inf,1,1,1,1,2,0,2,1,2,1,1,1,0
11992000,11992000,5588000,40.1540302,116.2594857,0.004071217,0.008415513,0.010978732,-2.1986527e-06,0.0004923133,0.0,0.005551055,-0.016182333,0.006085986,0.02853826,-0.030031089,0.020948336,-0.036324367,-0.00262608,-0.039088182,0.006401911,-0.0043513547,-0.12539652,49.92164,0.12758073,0.18248016,0.46856704,0.17492938,0.10955519,inf,inf,inf,inf,1,1,1,1,2,0,2,1,2,1,1,1,0
12493000,12493000,5588000,40.1540302,116.2594857,-0.0140482,-0.009766225,0.03646119,-2.1986527e-06,0.0004923133,0.0,-0.018016182,-0.030289855,0.017683942,0.037770048,-0.030031089,0.020948336,-0.036324367,-0.014248805,-0.025704779,0.0034468246,-0.0053640488,-0.12539652,49.92164,0.1,0.17781706,0.44431472,0.17026754,0.10714129,inf,inf,inf,inf,1,1,1,1,2,0,2,1,2,1,1,1,0
12992000,12992000,5588000,40.1540302,116.2594857,-0.0013271482,-0.01095388,0.05670264,-2.1986527e-06,0.0004923133,0.0,0.007486663,-0.024377307,0.02739216,0.046717998,-0.030031089,0.020948336,-0.036324367,0.012778961,-0.016813226,0.006004236,-0.0058648484,-0.12539652,49.92164,0.1,0.17510694,0.42231432,0.16380484,0.10614579,inf,inf,inf,inf,1,1,1,1,2,0,2,1,2,1,1,1,0
13492000,13492000,5588000,40.1540302,116.2594857,-0.0011148326,-0.008550056,0.05790206,-2.1986527e-06,0.0004923133,0.0,0.001920236,-0.018218692,0.026983794,0.023152672,-0.030031089,0.020948336,-0.036324367,-0.0010572221,-0.011753616,0.00088755036,-0.0060430006,-0.12539652,49.92164,0.1,0.1734136,0.4078129,0.15817402,0.10594365,inf,inf,inf,inf,1,1,1,1,2,0,2,1,2,1,1,1,0
14004000,14004000,5588000,40.1540302,116.2594857,0.006050125,-0.012911358,-0.027261574,-2.1986527e-06,0.0004923133,0.0,0.010934746,-0.020312902,-0.012852529,-0.08003537,-0.030031089,0.020948336,-0.036324367,0.008244945,-0.011599442,-0.001896705,-0.0061587486,-0.12539652,49.92164,0.1,0.17320341,0.39439392,0.15461282,0.10586349,inf,inf,inf,inf,1,1,1,1,2,0,2,1,2,1,1,1,0
14496000,14496000,5588000,40.1540302,116.2594857,0.021794155,-0.016461851,-0.02723207,-2.1986527e-06,0.0004923133,0.0,0.026590817,-0.018749516,-0.00973866,-0.041624676,-0.030031089,0.020948336,-0.036324367,0.015427837,-0.005948894,-0.0010186009,-0.0062083085,-0.12539652,49.92164,0.1,0.17155823,0.38257816,0.1504808,0.10492259,inf,inf,inf,inf,1,1,1,1,2,0,2,1,2,1,1,1,0
14996000,14996000,5588000,40.1540302,116.2594857,0.033856314,-0.0104733175,-0.059852224,-2.1986527e-06,0.0004923133,0.0,0.033286564,-0.00793894,-0.025519919,-0.06147786,-0.030031089,0.020948336,-0.036324367,0.013554333,0.0003945435,-0.0033570188,-0.0059569217,-0.12539652,49.92164,0.1,0.17108317,0.37562037,0.14745854,0.10422112,inf,inf,inf,inf,1,1,1,1,2,0,2,1,2,1,1,1,0
15496000,15496000,5588000,40.1540302,116.2594857,0.056950066,-0.008553605,-0.0952085,-2.1986527e-06,0.0004923133,0.0,0.05412194,-0.0045397533,-0.040117692,-0.07302095,-0.030031089,0.020948336,-0.036324367,0.026233703,0.001104577,-0.012022442,-0.0056300163,-0.12539652,49.92164,0.10243624,0.17070489,0.37005523,0.1442439,0.10323384,inf,inf,inf,inf,1,1,1,1,2,0,2,1,2,1,1,1,0
15992000,15992000,5588000,40.1540302,116.2594857,0.067007266,-0.0005081354,-0.1278235,-2.1986527e-06,0.0004923133,0.0,0.054559004,0.005253482,-0.052615944,-0.077452965,-0.030031089,0.020948336,-0.036324367,0.019235069,0.006698286,-0.013824551,-0.0051653073,-0.12539652,49.92164,0.10096765,0.170245,0.36360332,0.14119641,0.10183419,inf,inf,inf,inf,1,1,1,1,2,0,2,1,2,1,1,1,0
16493000,16493000,5588000,40.1540302,116.2594857,0.06469509,-0.017509,-0.13430935,-2.1986527e-06,0.0004923133,0.0,0.04404869,-0.012018206,-0.05121803,-0.048320778,-0.030031089,0.020948336,-0.036324367,0.012169292,-0.0025191316,-0.009521841,-0.0050244373,-0.12539652,49.92164,0.11722645,0.16967455,0.35818887,0.13795619,0.100273654,inf,inf,inf,inf,1,1,1,1,2,0,2,1,2,1,1,1,0
16996000,16996000,5588000,40.1540302,116.2594857,0.024686424,-0.022737883,-0.13541216,-2.1986527e-06,0.0004923133,0.0,-0.00030133108,-0.014204832,-0.048068725,-0.026866062,-0.030031089,0.020948336,-0.036324367,-0.008990909,-0.0039924,-0.00271414,-0.0048765223,-0.12539652,49.92164,0.12828544,0.16932197,0.35544285,0.13518474,0.0988384,inf,inf,inf,inf,1,1,1,1,2,0,2,1,2,1,1,1,0
17501000,17501000,5588000,40.1540302,116.2594857,0.0016058183,-0.038276386,-0.097633705,-2.1986527e-06,0.0004923133,0.0,-0.017049303,-0.027231991,-0.027694691,0.025386013,-0.030031089,0.020948336,-0.036324367,-0.011347668,-0.008610525,-0.002413988,-0.0049477327,-0.12539652,49.92164,0.11032122,0.16984704,0.35203537,0.13320407,0.09746393,inf,inf,inf,inf,1,1,1,1,2,0,2,1,2,1,1,1,0
17996000,17996000,5588000,40.1540302,116.2594857,-0.008281649,-0.03802055,-0.07352596,-2.1986527e-06,0.0004923133,0.0,-0.022509249,-0.020341024,-0.01584828,0.044459086,-0.030031089,0.020948336,-0.036324367,-0.012725368,-0.0011083876,0.0023118088,-0.0050529884,-0.12539652,49.92164,0.13674471,0.16868322,0.3498393,0.12991488,0.09577609,inf,inf,inf,inf,1,1,1,1,2,0,2,1,2,1,1,1,0
18492000,18492000,5588000,40.1540302,116.2594857,-0.021702394,-0.023462273,0.0054501155,-2.1986527e-06,0.0004923133,0.0,-0.032589987,-0.00631838,0.019381948,0.11368554,-0.030031089,0.020948336,-0.036324367,-0.016505148,0.0019714783,0.005857087,-0.004873859,-0.12539652,49.92164,0.12606347,0.16847,0.3468543,0.12750684,0.09425092,inf,inf,inf,inf,1,1,1,1,2,0,2,1,2,1,1,1,0
18992000,18992000,5588000,40.1540302,116.2594857,-0.029527444,-0.03351381,0.050239187,-2.1986527e-06,0.0004923133,0.0,-0.034167476,-0.016746309,0.03426144,0.10508248,-0.030031089,0.020948336,-0.036324367,-0.013377822,-0.0029352221,0.0051526087,-0.0048523536,-0.12539652,49.92164,0.1,0.16821852,0.34588706,0.12520769,0.093005046,inf,inf,inf,inf,1,1,1,1,2,0,2,1,2,1,1,1,0
19492000,19492000,5588000,40.1540302,116.2594857,-0.050037123,-0.020641454,0.059375707,-2.1986527e-06,0.0004923133,0.0,-0.049931917,-0.00097230787,0.034831017,0.06806782,-0.030031089,0.020948336,-0.036324367,-0.021282358,0.006690739,0.0039432193,-0.0048132925,-0.12539652,49.92164,0.1,0.16800396,0.34350163,0.12312346,0.0918184,inf,inf,inf,inf,1,1,1,1,2,0,2,1,2,1,1,1,0
19992000,19992000,5588000,40.1540302,116.2594857,-0.068615764,-0.014193875,0.03731194,-2.1986527e-06,0.0004923133,0.0,-0.059172586,0.0014507712,0.022569846,0.014172735,-0.030031089,0.020948336,-0.036324367,-0.021120783,0.0028060833,0.0012349336,-0.0046217525,-0.12539652,49.92164,0.1,0.16768375,0.34298238,0.121059045,0.09095771,inf,inf,inf,inf,1,1,1,1,2,0,2,1,2,1,1,1,0
20492000,20492000,5588000,40.1540302,116.2594857,-0.07568238,-0.016569402,0.012457044,-2.1986527e-06,0.0004923133,0.0,-0.05778228,-0.0006991881,0.011670139,-0.012373412,-0.030031089,0.020948336,-0.036324367,-0.018616013,0.0035874632,0.0019539145,-0.0045698746,-0.12539652,49.92164,0.100691505,0.17526716,0.3432329,0.12567028,0.09199662,inf,inf,inf,inf,1,1,1,1,2,0,2,1,2,1,1,1,0
20996000,20996000,5588000,40.1540302,116.2594857,-0.061870515,-0.00729046,0.04830808,-2.1986527e-06,0.0004923133,0.0,-0.039277863,0.0059815133,0.02620457,0.033959482,-0.030031089,0.020948336,-0.036324367,-0.010092029,0.0044506327,0.0030994413,-0.0043972204,-0.12539652,49.92164,0.1,0.1668394,0.34077528,0.11718485,0.08960458,inf,inf,inf,inf,1,1,1,1,2,0,2,1,2,1,1,1,0
21492000,21492000,5588000,40.1540302,116.2594857,-0.03548749,-0.0074614543,0.026684755,-2.1986527e-06,0.0004923133,0.0,-0.016148958,0.0050274646,0.013142983,-0.010290982,-0.030031089,0.020948336,-0.036324367,-0.003918153,0.0050336425,0.00013969837,-0.004291214,-0.12539652,49.92164,0.1,0.1665403,0.3390863,0.1159208,0.08911141,inf,inf,inf,inf,1,1,1,1,2,0,2,1,2,1,1,1,0
21992000,21992000,5588000,40.1540302,116.2594857,-0.011877293,-0.01828135,0.008323111,-2.1986527e-06,0.0004923133,0.0,0.0021240157,-0.0060277134,0.0044287783,-0.023293668,-0.030031089,0.020948336,-0.036324367,0.001399216,-0.0010818229,-0.21566077,-0.0041819722,-0.12539652,49.92164,0.10015263,0.17395045,0.3412695,0.12062209,0.0906655,inf,inf,inf,inf,1,1,1,1,2,0,2,1,2,1,1,1,0
22496000,22496000,5588000,40.1540302,116.2594857,-0.010401439,0.0024634432,0.009303188,-2.1986527e-06,0.0004923133,0.0,-0.0010024412,0.014066502,0.022457574,0.0031266315,-0.030031089,0.020948336,-0.036324367,-0.0039988104,0.012370835,-1.5371325,-0.003949652,-0.12539652,49.92164,0.1,0.1659399,0.3377055,0.11591127,0.08859193,inf,inf,inf,inf,1,1,1,1,2,0,2,1,2,1,1,1,0
22992000,22992000,5588000,40.1540302,116.2594857,-0.024206502,0.044988792,-0.024471493,-2.1986527e-06,0.0004923133,0.0,-0.010928327,0.05279765,-0.046089783,-0.08009128,-0.030031089,0.020948336,-0.036324367,0.007673583,-0.00025433835,3.1230593,-0.0033149475,-0.12539652,49.92164,0.13360935,0.17364803,0.33843705,0.17255706,0.090144195,inf,inf,inf,inf,1,1,1,1,2,0,2,1,2,1,1,1,0
23496000,23496000,5588000,40.1540302,116.2594857,-0.0058725732,0.028203228,-0.036448836,-2.1986527e-06,0.0004923133,0.0,0.011455709,-0.043176174,-0.2427449,-0.2539642,-0.030031089,0.020948336,-0.036324367,-0.037761185,-0.16531758,-2.1622412,-0.0009766329,-0.12539652,49.92164,0.1455867,0.17474152,0.3387358,0.18765576,0.09012252,inf,inf,inf,inf,1,1,1,1,2,0,2,1,2,1,1,1,0
23992000,23992000,5588000,40.1540302,116.2594857,0.0075530387,-0.040631276,-0.33019927,-2.1986527e-06,0.0004923133,0.0,-0.0013565238,-0.07890657,-0.38776466,-0.450273,-0.030031089,0.020948336,-0.036324367,-0.0622178,0.07047084,0.52309406,0.0023273057,-0.12539652,49.92164,0.43933713,0.17550702,0.33908066,0.17542984,0.09012648,inf,inf,inf,inf,1,1,1,1,2,0,2,1,2,1,1,1,0
24492000,24492000,5588000,40.1540302,116.2594857,-0.024374612,-0.08201153,-0.5014871,-2.1986527e-06,0.0004923133,0.0,-0.031982902,-0.02666896,-0.25084648,-0.29906616,-0.030031089,0.020948336,-0.036324367,0.025033468,0.14490347,0.15677696,0.0018142035,-0.12539652,49.92164,0.6106249,0.17542182,0.3378798,0.1591933,0.08998493,inf,inf,inf,inf,1,1,1,1,2,0,2,1,2,1,1,1,0
24992000,24992000,5588000,40.1540302,116.2594857,-0.05768403,-0.030677302,-0.59597105,-2.1986527e-06,0.0004923133,0.0,-0.02260105,0.048898216,-0.20482646,-0.21958208,-0.030031089,0.020948336,-0.036324367,0.06917869,-0.035903182,0.038650814,0.000815238,-0.12539652,49.92164,0.7051089,0.1751793,0.33673295,0.1455405,0.08987752,inf,inf,inf,inf,1,1,1,1,2,0,2,1,2,1,1,1,0
25496000,25496000,5588000,40.1540302,116.2594857,-0.09359824,0.004456911,-0.6526648,-2.1986527e-06,0.0004923133,0.0,-0.0043853745,0.024972836,-0.18959834,-0.16697353,-0.030031089,0.020948336,-0.036324367,0.10841392,-0.07016821,-0.02382483,0.000243211,-0.12539652,49.92164,0.7618027,0.174796,0.33720553,0.13459451,0.089921795,inf,inf,inf,inf,1,1,1,1,2,0,2,1,2,1,1,1,0
25992000,25992000,5588000,40.1540302,116.2594857,-0.09527143,0.024329683,-0.7190674,-2.1986527e-06,0.0004923133,0.0,0.033935163,0.0036933802,-0.17107859,-0.14200015,-0.030031089,0.020948336,-0.036324367,0.07088759,-0.07204786,0.093487084,-0.0001323246,-0.12539652,49.92164,0.8282052,0.17428583,0.3361558,0.12600274,0.08985504,inf,inf,inf,inf,1,1,1,1,2,0,2,1,2,1,1,1,0
26496000,26496000,5588000,40.1540302,116.2594857,-0.0460454,0.01736531,-0.75818235,-2.1986527e-06,0.0004923133,0.0,0.06427221,-0.020351158,-0.15545845,-0.10932427,-0.030031089,0.020948336,-0.036324367,-0.037650824,-0.018883282,-0.00833813,-0.00051817286,-0.12539652,49.92164,0.8673202,0.17345558,0.336703,0.119177304,0.08989106,inf,inf,inf,inf,1,1,1,1,2,0,2,1,2,1,1,1,0
26992000,26992000,5588000,40.1540302,116.2594857,0.005944349,0.033183962,-0.78865254,-2.1986527e-06,0.0004923133,0.0,0.046061516,-0.008505679,0.0879466,0.12911299,-0.030031089,0.020948336,-0.036324367,-0.07323228,0.001117095,0.36843863,-0.00078388647,-0.12539652,49.92164,0.89779043,0.17263253,0.33572897,0.114095286,0.08981353,inf,inf,inf,inf,1,1,1,1,2,0,2,1,2,1,1,1,0
27496000,27496000,5588000,40.1540302,116.2594857,0.020721145,0.043340024,-0.705245,-2.1986527e-06,0.0004923133,0.0,0.008525972,-0.008402647,-0.014353638,0.05269796,-0.030031089,0.020948336,-0.036324367,-0.05653141,-0.034562018,-0.19654165,-0.001191536,-0.12539652,49.92164,0.8143829,0.17178258,0.33635142,0.11071288,0.08986565,inf,inf,inf,inf,1,1,1,1,2,0,2,1,2,1,1,0,0
27992000,27992000,5588000,40.1540302,116.2594857,0.020683173,0.020060288,-0.7411903,-2.1986527e-06,0.0004923133,0.0,-0.007638617,-0.017724881,-0.024835424,-0.005869216,-0.030031089,0.020948336,-0.036324367,-0.028738206,0.025784556,0.11266022,-0.0015204868,-0.12539652,49.92164,0.8503282,0.17091079,0.3354503,0.10861771,0.08978141,inf,inf,inf,inf,1,1,1,1,2,0,2,1,2,1,1,0,0
28501000,28501000,5588000,40.1540302,116.2594857,-0.00999897,0.006818886,-0.7525361,-2.1986527e-06,0.0004923133,0.0,-0.024763588,-0.004257491,0.0036089455,0.012709778,-0.030031089,0.020948336,-0.036324367,0.035880767,0.03094438,-0.0882186,-0.0018267009,-0.12539652,49.92164,0.86167395,0.17079714,0.3350675,0.10776423,0.089889966,inf,inf,inf,inf,1,1,1,1,2,0,2,1,2,1,1,0,0
28992000,28992000,5588000,40.1540302,116.2594857,-0.03567141,-0.005627158,-0.74650013,-2.1986527e-06,0.0004923133,0.0,0.0017150871,0.010191726,-0.034507968,-0.0201907,-0.030031089,0.020948336,-0.036324367,0.08063876,0.038448393,0.022002494,-0.0018349729,-0.12539652,49.92164,0.855638,0.16943742,0.33527905,0.107282616,0.08973561,inf,inf,inf,inf,1,1,1,1,2,0,2,1,2,1,1,0,0
29496000,29496000,5588000,40.1540302,116.2594857,-0.024519179,-0.025370015,-0.762175,-2.1986527e-06,0.0004923133,0.0,0.024458803,0.012781621,-0.019347377,-0.012805281,-0.030031089,0.020948336,-0.036324367,0.015922472,0.066785134,0.017399235,-0.001553808,-0.12539652,49.92164,0.87131286,0.16893291,0.33446538,0.107476234,0.08965808,inf,inf,inf,inf,1,1,1,1,2,0,2,1,2,1,1,0,0
29996000,29996000,5588000,40.1540302,116.2594857,-0.016655637,-0.03766676,-0.77395254,-2.1986527e-06,0.0004923133,0.0,0.0255991,0.034440883,-0.022428269,-0.02169461,-0.030031089,0.020948336,-0.036324367,0.00469044,0.08689478,0.064137794,-0.0011378357,-0.12539652,49.92164,0.8830904,0.16860019,0.3352017,0.10791957,0.08971026,inf,inf,inf,inf,1,1,1,1,2,0,2,1,2,1,1,0,0
30492000,30492000,5588000,40.1540302,116.2594857,-0.012138396,-0.0078728385,-0.7994441,-2.1986527e-06,0.0004923133,0.0,0.016345775,0.032150447,0.0155612035,-0.0039112754,-0.030031089,0.020948336,-0.036324367,-3.6448824,-0.050178077,0.009057111,-0.0006181736,-0.12539652,49.92164,0.908582,0.16841969,0.33443072,0.108432285,0.08964792,inf,inf,inf,inf,1,1,1,1,2,0,2,1,2,1,1,0,0
30996000,30996000,5588000,40.1540302,116.2594857,-0.0026110797,0.014346133,-0.8288551,-2.1986527e-06,0.0004923133,0.0,-0.027437849,0.019133875,0.010964875,-0.025463779,-0.030031089,0.020948336,-0.036324367,2.9642105,-0.021786973,-0.003043562,-0.00019542358,-0.12539652,49.92164,0.93799293,0.16813114,0.33520094,0.10847887,0.089666784,inf,inf,inf,inf,1,1,1,1,2,0,2,1,2,1,1,0,0
31496000,31496000,5588000,40.1540302,116.2594857,0.009950996,0.047709532,-0.8036082,-2.1986527e-06,0.0004923133,0.0,-0.072821386,0.022665573,0.01361198,0.010318931,-0.030031089,0.020948336,-0.036324367,-3.5529275,-0.029603498,-0.037470035,0.00024672714,-0.12539652,49.92164,0.9127461,0.16779298,0.33443624,0.10852125,0.08953529,inf,inf,inf,inf,1,1,1,1,2,0,2,1,2,1,1,0,0
31996000,31996000,5588000,40.1540302,116.2594857,-0.004055369,0.063443236,-0.8028837,-2.1986527e-06,0.0004923133,0.0,-0.1361916,0.008985369,0.0032284765,-0.0031210715,-0.030031089,0.020948336,-0.036324367,-0.22099751,-0.013378746,0.035837293,0.0008304388,-0.12539652,49.92164,0.9120215,0.16764882,0.33370596,0.10911967,0.08944178,inf,inf,inf,inf,1,1,1,1,2,0,2,1,2,1,1,0,0
32492000,32492000,5588000,40.1540302,116.2594857,0.015948812,0.05036713,-0.7709099,-2.1986527e-06,0.0004923133,0.0,0.03846353,-0.00070366013,0.010047186,0.029591005,-0.030031089,0.020948336,-0.036324367,3.6798708,0.025018455,-0.0258591,0.001355206,-0.12539652,49.92164,0.8800478,0.16736159,0.33449218,0.10833484,0.08942572,inf,inf,inf,inf,1,1,1,1,2,0,2,1,2,1,1,0,0
32996000,32996000,5588000,40.1540302,116.2594857,0.062858246,0.06586965,-0.75605845,-2.1986527e-06,0.0004923133,0.0,0.03917232,0.010930358,0.006751979,0.027561028,-0.030031089,0.020948336,-0.036324367,2.2466567,-0.0024216834,-0.018820167,0.0018994426,-0.12539652,49.92164,0.86519635,0.16713108,0.33376217,0.108102344,0.08930247,inf,inf,inf,inf,1,1,1,1,2,0,2,1,2,1,1,0,0
33492000,33492000,5588000,40.1540302,116.2594857,0.036675595,0.091894895,-0.74304086,-2.1986527e-06,0.0004923133,0.0,-0.14984235,0.013701407,0.00067009137,0.01974674,-0.030031089,0.020948336,-0.036324367,-2.5364969,-0.03482779,-0.07926951,0.0023586464,-0.12539652,49.92164,0.8521787,0.16706374,0.3345782,0.10795237,0.089343764,inf,inf,inf,inf,1,1,1,1,2,0,2,1,2,1,1,0,0
33992000,33992000,5588000,40.1540302,116.2594857,0.009410528,0.11536466,-0.7548846,-2.1986527e-06,0.0004923133,0.0,-0.07415508,0.010474233,-0.0009920879,-0.00066139083,-0.030031089,0.020948336,-0.036324367,-0.3605261,-0.037085373,-0.031335276,0.0026753386,-0.12539652,49.92164,0.8640225,0.16693571,0.33386335,0.1075723,0.08926068,inf,inf,inf,inf,1,1,1,1,2,0,2,1,2,1,1,0,0
34492000,34492000,5588000,40.1540302,116.2594857,0.1330945,0.10941345,-0.7622885,-2.1986527e-06,0.0004923133,0.0,0.107259,-0.0065098344,0.003151979,0.0010645683,-0.030031089,0.020948336,-0.036324367,-1.5564255,-0.012762723,-0.02738647,0.0028953892,-0.12539652,49.92164,0.87142634,0.16688259,0.33466268,0.107381456,0.08929418,inf,inf,inf,inf,1,1,1,1,2,0,2,1,2,1,1,0,0
34992000,34992000,5588000,40.1540302,116.2594857,0.22416061,0.09615148,-0.7497007,-2.1986527e-06,0.0004923133,0.0,-0.03536358,-0.010614456,0.0054666763,0.014139417,-0.030031089,0.020948336,-0.036324367,0.5134744,0.006043492,-0.030701047,0.0029097325,-0.12539652,49.92164,0.85883856,0.16676347,0.33392012,0.10681214,0.08919707,inf,inf,inf,inf,1,1,1,1,2,0,2,1,2,1,1,0,0
35493000,35493000,5588000,40.1540302,116.2594857,0.22206499,0.07077915,-0.7294247,-2.1986527e-06,0.0004923133,0.0,0.047969945,-0.019625496,0.0038075296,0.023814835,-0.030031089,0.020948336,-0.036324367,1.6519269,0.025054678,-0.04473254,0.0027298487,-0.12539652,49.92164,0.8385626,0.16666095,0.33470944,0.106459595,0.08923905,inf,inf,inf,inf,1,1,1,1,2,0,2,1,2,1,1,0,0
35992000,35992000,5588000,40.1540302,116.2594857,0.2929132,0.0582584,-0.76849234,-2.1986527e-06,0.0004923133,0.0,0.13809144,-0.009586606,-0.0061067063,-0.026665261,-0.030031089,0.020948336,-0.036324367,-0.004299785,0.0056866705,0.051932406,0.0024264576,-0.12539652,49.92164,0.87763023,0.16647384,0.33396566,0.10597166,0.08914315,inf,inf,inf,inf,1,1,1,1,2,0,2,1,2,1,1,0,0
36493000,36493000,5588000,40.1540302,116.2594857,0.2701407,0.040300462,-0.830031,-2.1986527e-06,0.0004923133,0.0,0.05247327,-0.011220967,-0.0059654918,-0.06293086,-0.030031089,0.020948336,-0.036324367,0.542462,0.01968356,0.05727783,0.0019546072,-0.12539652,49.92164,0.9391688,0.16620088,0.33473286,0.10537927,0.08915232,inf,inf,inf,inf,1,1,1,1,2,0,2,1,2,1,1,0,0
37004000,37004000,5588000,40.1540302,116.2594857,0.21265112,0.044729862,-0.83396894,-2.1986527e-06,0.0004923133,0.0,0.08539555,-0.0009949836,0.0022345318,-0.027944842,-0.030031089,0.020948336,-0.036324367,0.6141259,-0.003818712,-0.036250267,0.0015570385,-0.12539652,49.92164,0.9431068,0.1666618,0.33443764,0.10537979,0.0892526,inf,inf,inf,inf,1,1,1,1,2,0,2,1,2,1,1,0,0
37496000,37496000,5588000,40.1540302,116.2594857,0.12241851,0.038998324,-0.82228243,-2.1986527e-06,0.0004923133,0.0,-0.12983102,-0.0060855392,0.0037302948,-0.005004931,-0.030031089,0.020948336,-0.036324367,-2.5250025,-0.008610402,-0.058198344,0.0011155099,-0.12539652,49.92164,0.9314203,0.16575997,0.33469,0.10473224,0.089073114,inf,inf,inf,inf,1,1,1,1,2,0,2,1,2,1,1,0,0
37992000,37992000,5588000,40.1540302,116.2594857,-0.013414794,0.024770487,-0.8241998,-2.1986527e-06,0.0004923133,0.0,0.04002966,-0.007076375,-0.002120494,-0.01158369,-0.030031089,0.020948336,-0.036324367,0.47435486,0.0051283664,-0.0036479903,0.00067583594,-0.12539652,49.92164,0.9333377,0.16551875,0.33391318,0.10440618,0.0889808,inf,inf,inf,inf,1,1,1,1,2,0,2,1,2,1,1,0,0
38492000,38492000,5588000,40.1540302,116.2594857,-0.15782356,-0.005114673,-0.8076884,-2.1986527e-06,0.0004923133,0.0,-0.13423702,-0.018565118,0.0029302582,0.012412016,-0.030031089,0.020948336,-0.036324367,-0.9646571,0.026922295,-0.051198523,-0.00018161672,-0.12539652,49.92164,0.91682625,0.16527152,0.33466548,0.10401849,0.08897712,inf,inf,inf,inf,1,1,1,1,2,0,2,1,2,1,1,0,0
39004000,39004000,5588000,40.1540302,116.2594857,-0.30222198,-0.038855936,-0.81730974,-2.1986527e-06,0.0004923133,0.0,0.027318269,-0.0175963,-0.0008560879,-0.005625392,-0.030031089,0.020948336,-0.036324367,2.4964118,0.03868793,-0.0035954374,-0.000902962,-0.12539652,49.92164,0.92644763,0.16575043,0.33438256,0.10437376,0.08907988,inf,inf,inf,inf,1,1,1,1,2,0,2,1,2,1,1,0,0
39492000,39492000,5588000,40.1540302,116.2594857,-0.38385785,-0.059002962,-0.8237104,-2.1986527e-06,0.0004923133,0.0,-0.15163885,-0.013590109,0.004206069,0.0008206958,-0.030031089,0.020948336,-0.036324367,-1.433408,0.034097403,-0.070340924,-0.0017827401,-0.12539652,49.92164,0.9328482,0.1648452,0.33313912,0.10377456,0.08877019,inf,inf,inf,inf,1,1,1,1,2,0,2,1,2,1,1,0,0
40004000,40004000,5588000,40.1540302,116.2594857,-0.3733483,-0.05576058,-0.83827966,-2.1986527e-06,0.0004923133,0.0,0.009675445,-0.00031958774,-0.0014553999,-0.015835641,-0.030031089,0.020948336,-0.036324367,-1.2887213,0.018158343,0.03242812,-0.0024552124,-0.12539652,49.92164,0.9474175,0.16522388,0.3343885,0.10347371,0.088973105,inf,inf,inf,inf,1,1,1,1,2,0,2,1,2,1,1,0,0
40493000,40493000,5588000,40.1540302,116.2594857,-0.29510808,-0.033059184,-0.8224758,-2.1986527e-06,0.0004923133,0.0,0.086831585,0.0074191336,0.0028149888,0.008052343,-0.030031089,0.020948336,-0.036324367,0.9627195,-0.014559992,-0.035322458,-0.0030989049,-0.12539652,49.92164,0.9316137,0.16433154,0.33316243,0.10288944,0.08867635,inf,inf,inf,inf,1,1,1,1,2,0,2,1,2,1,1,0,0
40996000,40996000,5588000,40.1540302,116.2594857,-0.14758213,-0.02366786,-0.83011776,-2.1986527e-06,0.0004923133,0.0,0.19036724,0.0010880342,0.0042109312,0.0016910994,-0.030031089,0.020948336,-0.036324367,1.9123832,0.00045422453,0.16668439,-0.0034731484,-0.12539652,49.92164,0.9392556,0.16405685,0.33394897,0.10264679,0.08869749,inf,inf,inf,inf,1,1,1,1,2,0,2,1,2,1,1,0,0
41492000,41492000,5588000,40.1540302,116.2594857,-0.091544285,-0.025626987,-0.5956296,-2.1986527e-06,0.0004923133,0.0,0.30583212,-0.009376389,0.7073169,0.76400983,-0.030031089,0.020948336,-0.036324367,2.3464587,0.09445512,0.08773337,0.05846497,-0.12539652,49.92164,0.70476747,0.17067263,0.33517885,0.104729146,0.09040228,inf,inf,inf,inf,1,1,1,1,2,0,2,1,2,1,1,0,0
41992000,41992000,5588000,40.1540302,116.2594857,-0.18098396,-0.019843893,-0.24715145,-2.1986527e-06,0.0004923133,0.0,0.07331527,0.003778878,0.52444553,0.5835349,-0.030031089,0.020948336,-0.036324367,0.5237562,0.04699436,0.1255255,-0.0004614031,-0.12539652,49.92164,0.35628933,0.1703394,0.33597782,0.10569384,0.09041139,inf,inf,inf,inf,1,1,1,1,2,0,2,1,2,1,1,0,0
42500000,42500000,5588000,40.1540302,116.2594857,-0.28862664,0.004602559,0.0029614018,-2.1986527e-06,0.0004923133,0.0,0.37345695,-0.023913337,-0.29434115,-0.25059885,-0.030031089,0.020948336,-0.036324367,-1.0145277,-0.03108534,-3.8375185,-0.014340966,-0.12539652,49.92164,0.10617646,0.16337602,0.33327398,0.10141382,0.08856883,inf,inf,inf,inf,1,1,1,1,2,0,2,1,2,1,1,0,0
42992000,42992000,5588000,40.1540302,116.2594857,-0.24631047,0.0040252274,-0.06193981,-2.1986527e-06,0.0004923133,0.0,0.42626935,-0.02860563,-0.057459787,-0.06910174,-0.030031089,0.020948336,-0.036324367,3.096162,-0.044278193,7.5831146,-0.013339647,-0.12539652,49.92164,0.17107767,0.17043479,0.33592913,0.118585326,0.085606426,inf,inf,inf,inf,1,1,1,1,2,0,2,1,2,1,1,0,0
43496000,43496000,5588000,40.1540302,116.2594857,-0.22948708,0.0070575345,-0.05087854,-2.1986527e-06,0.0004923133,0.0,0.34497806,-0.02648071,-0.07350765,-0.060036737,-0.030031089,0.020948336,-0.036324367,-2.0410771,0.019966125,-0.33608076,-0.013349858,-0.12539652,49.92164,0.1600164,0.17109522,0.33490035,0.1309647,0.082759604,inf,inf,inf,inf,1,1,1,1,2,0,2,1,2,1,1,0,0
43992000,43992000,5588000,40.1540302,116.2594857,-0.3361496,0.026340777,-0.07240672,-2.1986527e-06,0.0004923133,0.0,0.08567071,-0.0064075557,-0.012420129,-0.008658072,-0.030031089,0.020948336,-0.036324367,2.4079912,-0.03111191,-0.27552432,-0.013619255,-0.12539652,49.92164,0.10019404,0.17197725,0.33376947,0.1348551,0.0816182,inf,inf,inf,inf,1,1,1,1,2,0,2,1,2,1,1,1,0
44492000,44492000,5588000,40.1540302,116.2594857,-0.39876902,0.029623704,-0.057969194,-2.1986527e-06,0.0004923133,0.0,-0.0321489,-0.0077454685,-0.024669016,-0.00010991999,-0.030031089,0.020948336,-0.036324367,-1.5421314,0.018868878,0.050585713,-0.014025955,-0.12539652,49.92164,0.111327566,0.17240599,0.33410317,0.12781465,0.08176993,inf,inf,inf,inf,1,1,1,1,2,0,2,1,2,1,1,1,0
44996000,44996000,5588000,40.1540302,116.2594857,-0.52766466,0.04167323,-0.043018665,-2.1986527e-06,0.0004923133,0.0,-0.42296827,0.00679227,-0.004563501,0.024233844,-0.030031089,0.020948336,-0.036324367,-1.4519497,0.023302894,0.05340669,-0.014463409,-0.12539652,49.92164,0.1,0.17243098,0.33290657,0.123946905,0.0824758,inf,inf,inf,inf,1,1,1,1,2,0,2,1,2,1,1,1,0
45496000,45496000,5588000,40.1540302,116.2594857,-0.6471534,0.06650334,-0.055354398,-2.1986527e-06,0.0004923133,0.0,-0.32411623,0.022852736,-0.012112377,-0.0003133451,-0.030031089,0.020948336,-0.036324367,-0.5456174,0.016018303,0.016662693,-0.014885465,-0.12539652,49.92164,0.105483264,0.1722924,0.33324486,0.12123914,0.08366664,inf,inf,inf,inf,1,1,1,1,2,0,2,1,2,1,1,1,0
45992000,45992000,5588000,40.1540302,116.2594857,-0.611882,0.07256328,-0.035476986,-2.1986527e-06,0.0004923133,0.0,-0.30018437,0.022504305,5.7267433e-05,0.0253357,-0.030031089,0.020948336,-0.036324367,-6.6076846,0.104578376,0.23425928,-0.015099709,-0.12539652,49.92164,0.10562046,0.1720762,0.33213854,0.118844636,0.08485171,inf,inf,inf,inf,1,1,1,1,2,0,2,1,2,1,1,1,0
46496000,46496000,5588000,40.1540302,116.2594857,-0.64254254,0.07547815,-0.04472045,-2.1986527e-06,0.0004923133,0.0,-0.3490261,0.021780726,-0.002240934,0.0036503188,-0.030031089,0.020948336,-0.036324367,-1.7797028,0.031617876,0.05762279,-0.015329539,-0.12539652,49.92164,0.1,0.1715794,0.33261704,0.116362214,0.08605843,inf,inf,inf,inf,1,1,1,1,2,0,2,1,2,1,1,1,0
