timestamp,timestamp_sample,ref_timestamp,ref_lat,ref_lon,x,y,z,delta_xy[0],delta_xy[1],delta_z,vx,vy,vz,z_deriv,delta_vxy[0],delta_vxy[1],delta_vz,ax,ay,az,heading,delta_heading,ref_alt,dist_bottom,eph,epv,evh,evv,vxy_max,vz_max,hagl_min,hagl_max,xy_valid,z_valid,v_xy_valid,v_z_valid,xy_reset_counter,z_reset_counter,vxy_reset_counter,vz_reset_counter,heading_reset_counter,xy_global,z_global,dist_bottom_valid,dist_bottom_sensor_bitfield
713000,713000,0,nan,nan,5.9326744e-20,1.3318776e-19,1.4748333e-07,0.0,0.0,0.0,0.0,5.327511e-17,5.097038e-05,5.1293027e-05,2.7755576e-17,-0.0,0.0,-5.551115e-15,1.110223e-14,0.009576976,0.121145904,0.121145904,nan,0.100000665,0.70622146,3.5000029,7.071068,0.45001808,inf,inf,inf,inf,0,1,0,1,1,0,1,0,1,0,0,1,2
997000,997000,0,nan,nan,-2.905594e-16,7.6785834e-16,0.015065763,0.0,0.0,0.0,-1.8884335e-15,5.1938315e-15,0.0035674542,0.01685721,2.7755576e-17,-0.0,0.0,-5.20417e-15,1.3877787e-14,0.009575858,0.121145904,0.121145904,nan,0.109046176,0.8625299,1.4300408,4.69319,0.45275235,inf,inf,inf,inf,0,1,0,1,1,0,1,0,1,0,0,1,2
1501000,1501000,0,nan,nan,4.8320934e-15,-4.674072e-14,0.019043477,0.0,0.0,0.0,2.6948806e-14,-2.416822e-13,0.008642003,0.015812464,2.7755576e-17,-0.0,0.0,1.110223e-13,-9.436896e-13,0.009521842,0.121145904,0.121145904,nan,0.1,0.83726966,0.8897782,1.9225682,0.46886292,inf,inf,inf,inf,0,1,0,1,1,0,1,0,1,0,0,1,2
1997000,1997000,0,nan,nan,3.018864e-14,-2.5705138e-13,0.018575951,0.0,0.0,0.0,9.642979e-14,-8.1480135e-13,0.0129579725,0.012466358,2.7755576e-17,-0.0,0.0,2.1684042e-13,-1.8041123e-12,0.009470618,0.121145904,0.121145904,nan,0.1,0.56711805,0.7598388,1.2950721,0.4983819,inf,inf,inf,inf,0,1,0,1,1,0,1,0,1,0,0,1,2
2497000,2497000,0,nan,nan,1.10716815e-13,-9.193633e-13,0.022124765,0.0,0.0,0.0,2.4727656e-13,-2.052702e-12,0.01694377,0.013925947,2.7755576e-17,-0.0,0.0,2.602085e-14,-2.4980015e-13,0.009560957,0.121145904,0.121145904,nan,0.1,0.6791014,0.7200522,1.597283,0.52637273,inf,inf,inf,inf,0,1,0,1,1,0,1,0,1,0,0,1,2
3000000,3000000,0,nan,nan,1.767841e-13,-1.4590987e-12,0.027995382,0.0,0.0,0.0,3.9905462e-13,-3.2911224e-12,0.020192726,0.01553923,2.7755576e-17,-0.0,0.0,1.3964523e-12,-1.1504685e-11,0.008910893,0.121145904,0.121145904,nan,0.1,0.54729253,0.7446629,1.3044606,0.5479101,inf,inf,inf,inf,0,1,0,1,1,0,1,0,1,0,0,1,2
3501000,3501000,0,nan,nan,1.4825498e-13,-1.2191319e-12,0.030680953,0.0,0.0,0.0,4.5648305e-13,-3.7556525e-12,0.020731859,0.011309472,2.7755576e-17,-0.0,0.0,2.6107586e-12,-2.1482814e-11,0.008335336,0.121145904,0.121145904,nan,0.1,0.623051,0.783722,1.3101995,0.5562613,inf,inf,inf,inf,0,1,0,1,1,0,1,0,1,0,0,1,2
4001000,4001000,0,nan,nan,-7.498485e-14,6.199327e-13,0.027051462,0.0,0.0,0.0,3.7601915e-13,-3.0829206e-12,0.018159991,0.0030813569,2.7755576e-17,-0.0,0.0,4.4325654e-12,-3.643752e-11,0.0074729323,0.121145904,0.121145904,nan,0.1,0.6980156,0.79700845,1.3212876,0.54279363,inf,inf,inf,inf,0,1,0,1,1,0,1,0,1,0,0,1,2
4497000,4492000,0,nan,nan,-5.0197785e-13,4.1346085e-12,0.024089212,0.0,0.0,0.0,-2.1664078e-13,1.7976096e-12,0.016160704,-0.0009935442,2.7755576e-17,-0.0,0.0,8.252079e-12,-6.782074e-11,0.005660578,0.121145904,0.121145904,nan,0.1,0.5372474,0.8090154,1.0318959,0.4817727,inf,inf,inf,inf,0,1,0,1,1,0,1,0,1,0,0,1,2
4996000,4992000,0,nan,nan,-1.0535161e-12,8.669596e-12,0.024746029,0.0,0.0,0.0,-1.0499206e-12,8.645963e-12,0.016200144,0.00059205026,2.7755576e-17,-0.0,0.0,9.268627e-12,-7.616129e-11,0.0051790844,0.121145904,0.121145904,nan,0.1,0.5996479,0.789027,1.0247924,0.41909304,inf,inf,inf,inf,0,1,0,1,1,0,1,0,1,0,0,1,2
5496000,5492000,0,nan,nan,5.6140745e-11,-1.1741872e-05,0.020587584,0.0,0.0,0.0,4.1304032e-10,-6.523128e-05,0.01464615,-0.0038124707,2.7755576e-17,-0.0,0.0,1.8294612e-09,-0.00020637145,0.0070514427,0.12116365,0.121145904,nan,0.1,0.47490343,0.75523657,0.8227873,0.38910186,inf,inf,inf,inf,0,1,0,1,1,0,1,0,1,0,0,1,2
6005000,5997000,5504000,40.1540302,116.2594857,1.0322356e-09,-8.545822e-05,0.015576212,0.0,0.0,0.0,4.0462957e-09,-0.00027131275,0.013285916,-0.0065324577,2.7755576e-17,-0.0,0.0,9.359323e-09,-0.00046279898,0.005776435,0.12118804,0.121145904,49.94616,0.1,0.52820796,0.7471302,0.824778,0.39323673,inf,inf,inf,inf,0,1,0,1,1,0,1,0,1,1,1,1,0
6496000,6489000,5504000,40.1540302,116.2594857,3.9378256e-09,-0.00020752035,0.020301657,0.0,0.0,0.0,1.1400768e-08,-0.0005121723,0.015431259,0.0023284154,2.7755576e-17,-0.0,0.0,1.8695067e-08,-0.0006479589,0.005172565,0.12121122,0.121145904,49.94616,0.10302968,0.5777801,0.7480311,0.80636346,0.413869,inf,inf,inf,inf,0,1,0,1,1,0,1,0,1,1,1,1,0
6997000,6993000,5504000,40.1540302,116.2594857,-4.305539e-06,-0.00034177967,0.024715682,0.0,0.0,0.0,-2.9239254e-05,-0.000731535,0.016622031,0.0054305657,2.7755576e-17,-0.0,0.0,-8.818002e-05,-0.0007756239,0.005172193,-0.004157195,-0.12538752,49.94616,0.1,0.47074217,0.7382296,0.5595995,0.4333145,inf,inf,inf,inf,0,1,0,1,1,0,1,0,2,1,1,1,0
7497000,7493000,5504000,40.1540302,116.2594857,-2.6601954e-05,-0.00050062727,0.023966769,0.0,0.0,0.0,-6.978742e-05,-0.0010013127,0.015322143,0.0014093344,2.7755576e-17,-0.0,0.0,-7.7702935e-05,-0.00096224464,0.0052461396,-0.004161015,-0.12538752,49.94616,0.1,0.47976667,0.7369056,0.54649574,0.44978437,inf,inf,inf,inf,0,1,0,1,1,0,1,0,2,1,1,1,0
8000000,7993000,5504000,40.1540302,116.2594857,-4.768133e-05,-0.0007014997,0.027806917,0.0,0.0,0.0,-8.61036e-05,-0.0012667066,0.016043928,0.005440335,2.7755576e-17,-0.0,0.0,-5.511389e-05,-0.0010421223,0.005928799,-0.004163258,-0.12538752,49.94616,0.10007926,0.41888884,0.7566673,0.5636044,0.4642711,inf,inf,inf,inf,0,1,0,1,1,0,1,0,2,1,1,1,0
8492000,8488000,5504000,40.1540302,116.2594857,-5.2262956e-05,-0.0008298037,0.033105243,0.0,0.0,0.0,-7.040194e-05,-0.0013514367,0.016640654,0.007949257,2.7755576e-17,-0.0,0.0,-1.8305527e-05,-0.00096736645,0.0033220274,-0.004159748,-0.12538752,49.94616,0.1,0.46625438,0.7761682,0.6123068,0.46892378,inf,inf,inf,inf,0,1,0,1,1,0,1,0,2,1,1,1,0
8993000,8989000,5504000,40.1540302,116.2594857,-3.7202095e-05,-0.00084176427,0.034999143,0.0,0.0,0.0,-3.1439675e-05,-0.0012703893,0.015386027,0.0047883377,2.7755576e-17,-0.0,0.0,1.619099e-05,-0.0008602439,0.0027619302,-0.004150663,-0.12538752,49.94616,0.1,0.5145586,0.7912403,0.60670185,0.4638041,inf,inf,inf,inf,0,1,0,1,1,0,1,0,2,1,1,1,0
9496000,9489000,5504000,40.1540302,116.2594857,-9.1545635e-06,-0.00072741444,0.029358262,0.0,0.0,0.0,1.2558497e-05,-0.0011115222,0.011025366,-0.004759506,2.7755576e-17,-0.0,0.0,4.0610146e-05,-0.00078774773,-7.264315e-05,-0.0041398355,-0.12538752,49.94616,0.1,0.44423813,0.78086114,0.48258075,0.44337374,inf,inf,inf,inf,0,1,0,1,1,0,1,0,2,1,1,1,0
9993000,9988000,5504000,40.1540302,116.2594857,1.7407598e-05,-0.00066766085,0.029887218,0.0,0.0,0.0,4.6425812e-05,-0.0010660533,0.009981828,-0.002890409,2.7755576e-17,-0.0,0.0,5.4146607e-05,-0.0007940556,-0.00084936613,-0.00413011,-0.12538752,49.94616,0.1,0.46651042,0.78639,0.4423732,0.42675647,inf,inf,inf,inf,0,1,0,1,1,0,1,0,2,1,1,1,0
10498000,10493000,5504000,40.1540302,116.2594857,-0.021195604,0.020571696,0.05378938,-5.7123457e-06,0.00043753372,0.0,-0.039038654,0.041562807,0.0711706,0.039430812,-0.09003591,0.060910452,0.101032995,0.0062424997,-0.0030558303,-7.729977e-05,-0.004141209,-0.12538752,49.94616,0.1,0.258433,0.6589609,0.17786719,0.15984058,inf,inf,inf,inf,1,1,1,1,2,0,2,1,2,1,1,1,0
10996000,10992000,5504000,40.1540302,116.2594857,-0.0074852835,0.02533512,0.010989902,-5.7123457e-06,0.00043753372,0.0,0.0022986257,0.027423011,0.0110194115,-0.049897324,-0.09003591,0.060910452,0.101032995,0.02278339,-0.009047089,-0.010454095,-0.004197775,-0.12538752,49.94616,0.1,0.21045074,0.5790085,0.16931677,0.13366322,inf,inf,inf,inf,1,1,1,1,2,0,2,1,2,1,1,1,0
11496000,11492000,5504000,40.1540302,116.2594857,0.0120306,0.03313571,0.019616421,-5.7123457e-06,0.00043753372,0.0,0.0308432,0.030027432,0.010981949,-0.018590063,-0.09003591,0.060910452,0.101032995,0.035546117,-0.0016239268,-0.0024427262,-0.004083248,-0.12538752,49.94616,0.1,0.18992461,0.51850134,0.17439105,0.124576,inf,inf,inf,inf,1,1,1,1,2,0,2,1,2,1,1,1,0
11997000,11993000,5504000,40.1540302,116.2594857,0.0054398593,0.0006381099,0.04080179,-5.7123457e-06,0.00043753372,0.0,0.01005032,-0.03302506,0.018134527,0.019406028,-0.09003591,0.060910452,0.101032995,0.0021573056,-0.053700797,0.003949553,-0.0050851195,-0.12538752,49.94616,0.13354681,0.18955383,0.48433557,0.19018623,0.12655395,inf,inf,inf,inf,1,1,1,1,2,0,2,1,2,1,1,1,0
12496000,12492000,5504000,40.1540302,116.2594857,-0.013725863,-0.013309013,0.048875537,-5.7123457e-06,0.00043753372,0.0,-0.014586435,-0.037663426,0.016303891,0.0066562593,-0.09003591,0.060910452,0.101032995,-0.012292897,-0.03127466,-0.01034513,-0.006421757,-0.12538752,49.94616,0.1,0.18359144,0.45139995,0.18099731,0.12532741,inf,inf,inf,inf,1,1,1,1,2,0,2,1,2,1,1,1,0
13000000,12996000,5504000,40.1540302,116.2594857,0.000576745,-0.012705771,0.071528524,-5.7123457e-06,0.00043753372,0.0,0.011718191,-0.029452376,0.025270352,0.026761401,-0.09003591,0.060910452,0.101032995,0.012643515,-0.020422377,-0.0036172566,-0.0070036114,-0.12538752,49.94616,0.1,0.18021074,0.42981383,0.17220652,0.12455514,inf,inf,inf,inf,1,1,1,1,2,0,2,1,2,1,1,1,0
13500000,13493000,5504000,40.1540302,116.2594857,-0.0029365346,-0.010639473,0.057814673,-5.7123457e-06,0.00043753372,0.0,0.002189567,-0.023506466,0.012456875,-0.015130784,-0.09003591,0.060910452,0.101032995,0.00018682837,-0.015307322,-0.011689216,-0.0071932436,-0.12538752,49.94616,0.1,0.1778191,0.41035604,0.16432267,0.12283697,inf,inf,inf,inf,1,1,1,1,2,0,2,1,2,1,1,1,0
14001000,13997000,5504000,40.1540302,116.2594857,0.006092927,-0.014323679,-0.025937151,-5.7123457e-06,0.00043753372,0.0,0.013289832,-0.023588121,-0.033310562,-0.100953676,-0.09003591,0.060910452,0.101032995,0.008676935,-0.012196989,-0.019371508,-0.007254312,-0.12538752,49.94616,0.11203496,0.17571215,0.3972839,0.15846968,0.12052511,inf,inf,inf,inf,1,1,1,1,2,0,2,1,2,1,1,1,0
14501000,14493000,5504000,40.1540302,116.2594857,0.024976796,-0.015060682,-0.026739826,-5.7123457e-06,0.00043753372,0.0,0.03176162,-0.018276235,-0.032158814,-0.061019603,-0.09003591,0.060910452,0.101032995,0.017556505,-0.0044558584,-0.023278406,-0.0071672257,-0.12538752,49.94616,0.10168574,0.1756393,0.3857968,0.15380955,0.11831135,inf,inf,inf,inf,1,1,1,1,2,0,2,1,2,1,1,1,0
15000000,14996000,5504000,40.1540302,116.2594857,0.037165537,-0.009866466,-0.061882105,-5.7123457e-06,0.00043753372,0.0,0.03785505,-0.0087843,-0.051552586,-0.0798734,-0.09003591,0.060910452,0.101032995,0.015996685,0.00013113162,-0.012684082,-0.0067892675,-0.12538752,49.94616,0.10413192,0.17462882,0.3782416,0.14914694,0.11557191,inf,inf,inf,inf,1,1,1,1,2,0,2,1,2,1,1,1,0
15501000,15497000,5504000,40.1540302,116.2594857,0.06240544,-0.006699162,-0.09610424,-5.7123457e-06,0.00043753372,0.0,0.059269212,-0.00309936,-0.06663708,-0.085803784,-0.09003591,0.060910452,0.101032995,0.026657313,0.0028236806,-0.022258608,-0.0063192225,-0.12538752,49.94616,0.108831026,0.17481269,0.3708249,0.14710699,0.11296088,inf,inf,inf,inf,1,1,1,1,2,0,2,1,2,1,1,1,0
16000000,15993000,5504000,40.1540302,116.2594857,0.06881171,-0.006575632,-0.12486891,-5.7123457e-06,0.00043753372,0.0,0.055331416,-0.0029141742,-0.07672204,-0.082667455,-0.09003591,0.060910452,0.101032995,0.018636847,0.00056735234,-0.008309259,-0.0057614218,-0.12538752,49.94616,0.119506,0.17315347,0.36556646,0.14267835,0.1098602,inf,inf,inf,inf,1,1,1,1,2,0,2,1,2,1,1,1,0
16500000,16496000,5504000,40.1540302,116.2594857,0.057284776,-0.017469123,-0.12579279,-5.7123457e-06,0.00043753372,0.0,0.03438836,-0.010173569,-0.070897505,-0.04807842,-0.09003591,0.060910452,0.101032995,0.003957705,0.0017826415,-0.012098679,-0.005576117,-0.12538752,49.94616,0.120891266,0.17177868,0.35941142,0.1392622,0.10680046,inf,inf,inf,inf,1,1,1,1,2,0,2,1,2,1,1,1,0
17004000,16997000,5504000,40.1540302,116.2594857,0.019092103,-0.0244578,-0.11474569,-5.7123457e-06,0.00043753372,0.0,-0.004406166,-0.015050225,-0.059754364,-0.011977706,-0.09003591,0.060910452,0.101032995,-0.009783376,-0.0030294023,-0.009536743,-0.0053769266,-0.12538752,49.94616,0.13421637,0.17254214,0.35717928,0.1377849,0.10469456,inf,inf,inf,inf,1,1,1,1,2,0,2,1,2,1,1,1,0
17501000,17496000,5504000,40.1540302,116.2594857,0.0018409358,-0.04043801,-0.08275746,-5.7123457e-06,0.00043753372,0.0,-0.015811559,-0.02781334,-0.04082205,0.025687277,-0.09003591,0.060910452,0.101032995,-0.010475371,-0.007888129,-0.013482756,-0.0053866943,-0.12538752,49.94616,0.10585331,0.17120829,0.35432926,0.1337549,0.1021041,inf,inf,inf,inf,1,1,1,1,2,0,2,1,2,1,1,1,0
17996000,17992000,5504000,40.1540302,116.2594857,-0.008056049,-0.031099297,-0.042346805,-5.7123457e-06,0.00043753372,0.0,-0.021914024,-0.01195528,-0.018814668,0.06514911,-0.09003591,0.060910452,0.101032995,-0.012212321,0.0039359373,-0.0047124918,-0.005357631,-0.12538752,49.94616,0.13271792,0.17021981,0.35023487,0.1311923,0.09961143,inf,inf,inf,inf,1,1,1,1,2,0,2,1,2,1,1,1,0
18501000,18493000,5504000,40.1540302,116.2594857,-0.024444032,-0.02482311,0.040854227,-5.7123457e-06,0.00043753372,0.0,-0.034805026,-0.007753907,0.019623855,0.13004918,-0.09003591,0.060910452,0.101032995,-0.017616736,0.0006181239,0.0034064054,-0.00510224,-0.12538752,49.94616,0.118508354,0.16998318,0.3488858,0.12839197,0.09765832,inf,inf,inf,inf,1,1,1,1,2,0,2,1,2,1,1,1,0
18996000,18989000,5504000,40.1540302,116.2594857,-0.030306105,-0.034355845,0.07299258,-5.7123457e-06,0.00043753372,0.0,-0.03467526,-0.016316237,0.029319253,0.10366733,-0.09003591,0.060910452,0.101032995,-0.014051974,-0.0024331366,0.004447996,-0.0050362204,-0.12538752,49.94616,0.1,0.1690437,0.3472977,0.12560794,0.09567406,inf,inf,inf,inf,1,1,1,1,2,0,2,1,2,1,1,1,0
19497000,19492000,5504000,40.1540302,116.2594857,-0.05337211,-0.015549075,0.07336918,-5.7123457e-06,0.00043753372,0.0,-0.05242255,0.0043341205,0.026391312,0.05641017,-0.09003591,0.060910452,0.101032995,-0.021968067,0.008836664,-0.0018039717,-0.0048902878,-0.12538752,49.94616,0.1,0.1690272,0.34485814,0.12399073,0.09403894,inf,inf,inf,inf,1,1,1,1,2,0,2,1,2,1,1,1,0
20000000,19996000,5504000,40.1540302,116.2594857,-0.069225214,-0.016649913,0.042581115,-5.7123457e-06,0.00043753372,0.0,-0.058969803,-0.0007623647,0.010960036,-0.0025648442,-0.09003591,0.060910452,0.101032995,-0.021016246,0.0018277734,-0.006722286,-0.0046745725,-0.12538752,49.94616,0.1,0.16951802,0.3431847,0.122136794,0.09282795,inf,inf,inf,inf,1,1,1,1,2,0,2,1,2,1,1,1,0
20492000,20488000,5504000,40.1540302,116.2594857,-0.073275805,-0.011469834,0.032351483,-5.7123457e-06,0.00043753372,0.0,-0.055504818,0.005041119,0.007476314,-0.0035168044,-0.09003591,0.060910452,0.101032995,-0.017363766,0.007061917,0.00028684732,-0.0045793755,-0.12538752,49.94616,0.11162591,0.16990589,0.34367514,0.11962024,0.09202959,inf,inf,inf,inf,1,1,1,1,2,0,2,1,2,1,1,1,0
20996000,20992000,5504000,40.1540302,116.2594857,-0.050653968,-0.009362765,0.06485469,-5.7123457e-06,0.00043753372,0.0,-0.029828813,0.0039015075,0.020084834,0.032372687,-0.09003591,0.060910452,0.101032995,-0.0058769337,0.0029608945,-0.0012749805,-0.0043682116,-0.12538752,49.94616,0.1,0.16883819,0.34160098,0.11788289,0.09093219,inf,inf,inf,inf,1,1,1,1,2,0,2,1,2,1,1,1,0
21496000,21492000,5504000,40.1540302,116.2594857,-0.027187409,-0.0077901334,0.03228389,-5.7123457e-06,0.00043753372,0.0,-0.010538446,0.004957023,0.0035727723,-0.0201818,-0.09003591,0.060910452,0.101032995,-0.001999599,0.0052380185,0.0009536743,-0.0042308928,-0.12538752,49.94616,0.1,0.16798101,0.34132084,0.11594271,0.09021001,inf,inf,inf,inf,1,1,1,1,2,0,2,1,2,1,1,1,0
22000000,21993000,5504000,40.1540302,116.2594857,-0.0050202087,-0.0189119,0.025188746,-5.7123457e-06,0.00043753372,0.0,0.005536197,-0.005472466,0.012956895,-0.0042275786,-0.09003591,0.060910452,0.101032995,-0.00019677143,0.0018926996,-1.0798479,-0.0041437894,-0.12538752,49.94616,0.10501316,0.1666012,0.34065193,0.11445811,0.08949066,inf,inf,inf,inf,1,1,1,1,2,0,2,1,2,1,1,1,0
22497000,22493000,5504000,40.1540302,116.2594857,-0.0148888845,0.009452665,0.020949267,-5.7123457e-06,0.00043753372,0.0,-0.016257957,0.030137375,-0.023282424,-0.042089038,-0.09003591,0.060910452,0.101032995,-0.018459436,0.0303956,-2.9480717,-0.003962844,-0.12538752,49.94616,0.10925264,0.17469107,0.34161738,0.16730335,0.09096697,inf,inf,inf,inf,1,1,1,1,2,0,2,1,2,1,1,1,0
23001000,22997000,5504000,40.1540302,116.2594857,-0.026886817,0.051819652,0.008209798,-5.7123457e-06,0.00043753372,0.0,-0.016357314,0.040914726,-0.04867438,-0.06713852,-0.09003591,0.060910452,0.101032995,0.016654324,-0.23146987,-1.1079637,-0.0024055017,-0.12538752,49.94616,0.12199211,0.1761455,0.34208706,0.18976256,0.09086357,inf,inf,inf,inf,1,1,1,1,2,0,2,1,2,1,1,1,0
23501000,23493000,5504000,40.1540302,116.2594857,-0.0049379608,-0.019015493,-0.24743132,-5.7123457e-06,0.00043753372,0.0,0.0042647193,-0.082474306,-0.47617403,-0.527715,-0.09003591,0.060910452,0.101032995,-0.03579363,0.056466658,0.68337,0.0015771622,-0.12538752,49.94616,0.3776332,0.17557466,0.3399996,0.17710997,0.090327956,inf,inf,inf,inf,1,1,1,1,2,0,2,1,2,1,1,1,0
23996000,23992000,5504000,40.1540302,116.2594857,0.0027838051,-0.085866,-0.4742207,-5.7123457e-06,0.00043753372,0.0,-0.018891105,-0.04936834,-0.28046578,-0.34423444,-0.09003591,0.060910452,0.101032995,-0.066816844,0.15229519,0.3203079,0.0017760134,-0.12538752,49.94616,0.60442257,0.17537372,0.34008417,0.16090862,0.09017077,inf,inf,inf,inf,1,1,1,1,2,0,2,1,2,1,1,1,0
24504000,24497000,5504000,40.1540302,116.2594857,-0.030265579,-0.09799322,-0.59990144,-5.7123457e-06,0.00043753372,0.0,-0.036389247,0.025753325,-0.19123502,-0.23429467,-0.09003591,0.060910452,0.101032995,0.0319544,0.120833576,0.13107154,0.0006104232,-0.12538752,49.94616,0.7301034,0.17608342,0.33912185,0.14794987,0.09016683,inf,inf,inf,inf,1,1,1,1,2,0,2,1,2,1,1,1,0
24996000,24992000,5504000,40.1540302,116.2594857,-0.06403814,-0.039740045,-0.67093474,-5.7123457e-06,0.00043753372,0.0,-0.026842598,0.065787226,-0.16098824,-0.17514722,-0.09003591,0.060910452,0.101032995,0.06773341,-0.04349769,0.05445736,0.00061452464,-0.12538752,49.94616,0.8011366,0.17455137,0.3388228,0.13561726,0.0899149,inf,inf,inf,inf,1,1,1,1,2,0,2,1,2,1,1,1,0
25501000,25497000,5504000,40.1540302,116.2594857,-0.097922236,-0.0069666477,-0.70459414,-5.7123457e-06,0.00043753372,0.0,-0.005780554,0.034240507,-0.15613501,-0.13039769,-0.09003591,0.060910452,0.101032995,0.09738779,-0.06652821,-0.034604218,0.0004771036,-0.12538752,49.94616,0.8347961,0.17297934,0.3370136,0.12595516,0.089563236,inf,inf,inf,inf,1,1,1,1,2,0,2,1,2,1,1,1,0
25993000,25989000,5504000,40.1540302,116.2594857,-0.09748605,0.0122645935,-0.7582657,-5.7123457e-06,0.00043753372,0.0,0.029506044,0.00894469,-0.13802794,-0.10835849,-0.09003591,0.060910452,0.101032995,0.05955297,-0.07479401,0.06423145,0.00039766848,-0.12538752,49.94616,0.88846755,0.17294307,0.33784345,0.11945264,0.08975918,inf,inf,inf,inf,1,1,1,1,2,0,2,1,2,1,1,1,0
26496000,26492000,5504000,40.1540302,116.2594857,-0.04778235,0.009581841,-0.7798219,-5.7123457e-06,0.00043753372,0.0,0.05434466,-0.00811295,0.02851947,0.07135949,-0.09003591,0.060910452,0.101032995,-0.058782667,-0.007113971,1.2185386,0.00032640115,-0.12538752,49.94616,0.9100238,0.1713094,0.33772737,0.11389563,0.08957442,inf,inf,inf,inf,1,1,1,1,2,0,2,1,2,1,1,1,0
27004000,26997000,5504000,40.1540302,116.2594857,-0.0048334,0.033308785,-0.71085584,-5.7123457e-06,0.00043753372,0.0,0.024961485,0.005853203,0.01981295,0.07150817,-0.09003591,0.060910452,0.101032995,-0.10735261,-0.038740713,-0.17353798,0.0003652144,-0.12538752,49.94616,0.8410578,0.17090349,0.33706188,0.11032388,0.08961908,inf,inf,inf,inf,1,1,1,1,2,0,2,1,2,1,1,0,0
27492000,27488000,5504000,40.1540302,116.2594857,-0.006331332,0.033989415,-0.677789,-5.7123457e-06,0.00043753372,0.0,-0.017099267,-0.017251674,-0.050517194,0.007981012,-0.09003591,0.060910452,0.101032995,-0.05054416,-0.039452124,-0.08371937,0.0002375042,-0.12538752,49.94616,0.8079909,0.16969126,0.33745354,0.10786007,0.08955972,inf,inf,inf,inf,1,1,1,1,2,0,2,1,2,1,1,0,0
27996000,27992000,5504000,40.1540302,116.2594857,-0.018838685,0.007118132,-0.7272568,-5.7123457e-06,0.00043753372,0.0,-0.02880211,-0.023437446,-0.028627636,-0.017301729,-0.09003591,0.060910452,0.101032995,-0.017236743,0.027306411,0.13980548,0.00017615347,-0.12538752,49.94616,0.8574587,0.1684633,0.33630115,0.106223635,0.089353085,inf,inf,inf,inf,1,1,1,1,2,0,2,1,2,1,1,0,0
28496000,28492000,5504000,40.1540302,116.2594857,-0.06337273,-0.011572848,-0.72312856,-5.7123457e-06,0.00043753372,0.0,-0.038765017,-0.012167673,-0.010355543,0.008050986,-0.09003591,0.060910452,0.101032995,0.06293492,0.038347367,-0.12071537,-3.4321838e-06,-0.12538752,49.94616,0.8533305,0.16736577,0.33671558,0.10559987,0.08926746,inf,inf,inf,inf,1,1,1,1,2,0,2,1,2,1,1,0,0
29004000,28997000,5504000,40.1540302,116.2594857,-0.08269773,-0.025156206,-0.7300447,-5.7123457e-06,0.00043753372,0.0,0.0026621912,0.0066529717,-0.03830367,-0.024197042,-0.09003591,0.060910452,0.101032995,0.06962249,0.042764235,0.09534507,-0.00016612823,-0.12538752,49.94616,0.86024666,0.16641265,0.33557603,0.10568529,0.08905613,inf,inf,inf,inf,1,1,1,1,2,0,2,1,2,1,1,0,0
29493000,29489000,5504000,40.1540302,116.2594857,-0.07454742,-0.048073698,-0.7371201,-5.7123457e-06,0.00043753372,0.0,0.020172909,0.010204345,-0.022539664,-0.009072399,-0.09003591,0.060910452,0.101032995,0.017770836,0.070962705,0.010434537,-0.00030430802,-0.12538752,49.94616,0.86732197,0.16577575,0.33601335,0.10596297,0.08900684,inf,inf,inf,inf,1,1,1,1,2,0,2,1,2,1,1,0,0
30000000,29993000,5504000,40.1540302,116.2594857,-0.05409914,-0.0539898,-0.7458205,-5.7123457e-06,0.00043753372,0.0,0.16540089,0.020391965,0.013753979,0.016209971,-0.09003591,0.060910452,0.101032995,0.57875705,-0.027136303,-0.00025052574,-0.00029650892,-0.12538752,49.94616,0.87602246,0.16525324,0.3349337,0.106079206,0.08884047,inf,inf,inf,inf,1,1,1,1,2,0,2,1,2,1,1,0,0
30493000,30489000,5504000,40.1540302,116.2594857,-0.016933832,-0.036232788,-0.76494324,-5.7123457e-06,0.00043753372,0.0,0.25898278,0.012594024,0.0048584524,-0.01147614,-0.09003591,0.060910452,0.101032995,-2.6058614,-0.017948652,0.1473585,-0.0003215816,-0.12538752,49.94616,0.8951452,0.16489124,0.33543882,0.10673388,0.08885215,inf,inf,inf,inf,1,1,1,1,2,0,2,1,2,1,1,0,0
31004000,30997000,5504000,40.1540302,116.2594857,-0.07715918,-0.01793009,-0.78869975,-5.7123457e-06,0.00043753372,0.0,0.09109936,0.009954499,0.009622253,-0.017585987,-0.09003591,0.060910452,0.101032995,2.5446296,-0.013340567,-0.038334727,-0.00038016713,-0.12538752,49.94616,0.9189017,0.1653353,0.33492547,0.10696887,0.088924386,inf,inf,inf,inf,1,1,1,1,2,0,2,1,2,1,1,0,0
31496000,31492000,5504000,40.1540302,116.2594857,-0.20641835,0.014119175,-0.75496393,-5.7123457e-06,0.00043753372,0.0,-0.054433167,0.015846701,0.012032494,0.01898452,-0.09003591,0.060910452,0.101032995,3.280253,-0.030693712,-0.024008965,-0.00038583102,-0.12538752,49.94616,0.8851658,0.17142217,0.33697957,0.111499555,0.09046661,inf,inf,inf,inf,1,1,1,1,2,0,2,1,2,1,1,0,0
32000000,31993000,5504000,40.1540302,116.2594857,-0.32436028,0.022540702,-0.75401,-5.7123457e-06,0.00043753372,0.0,-0.07689505,-9.8245975e-05,0.006239214,0.0072467895,-0.09003591,0.060910452,0.101032995,-0.836611,-0.006789344,0.0037727875,-0.00064437336,-0.12538752,49.94616,0.8842119,0.17123373,0.33602706,0.11211722,0.09033159,inf,inf,inf,inf,1,1,1,1,2,0,2,1,2,1,1,0,0
32497000,32492000,5504000,40.1540302,116.2594857,-0.44817019,0.012088342,-0.7150007,-5.7123457e-06,0.00043753372,0.0,-0.1626293,-0.004471787,0.0058069327,0.03390577,-0.09003591,0.060910452,0.101032995,-0.64976275,0.014882388,-0.05341215,-0.0009929752,-0.12538752,49.94616,0.84520257,0.17089905,0.33661422,0.11076933,0.09028829,inf,inf,inf,inf,1,1,1,1,2,0,2,1,2,1,1,0,0
32997000,32992000,5504000,40.1540302,116.2594857,-0.4403692,0.03063711,-0.68520004,-5.7123457e-06,0.00043753372,0.0,-0.0745056,0.007371627,0.008335814,0.046725564,-0.09003591,0.060910452,0.101032995,-0.6985332,-0.017848792,-0.08646957,-0.0010907871,-0.12538752,49.94616,0.8154019,0.17069331,0.33722228,0.11040015,0.090282775,inf,inf,inf,inf,1,1,1,1,2,0,2,1,2,1,1,0,0
33492000,33488000,5504000,40.1540302,116.2594857,-0.28821334,0.05784461,-0.6707188,-5.7123457e-06,0.00043753372,0.0,0.18626367,0.011776852,0.0008971462,0.031514067,-0.09003591,0.060910452,0.101032995,-1.3324622,-0.027074538,0.02338644,-0.00087930536,-0.12538752,49.94616,0.8009207,0.17032875,0.3362663,0.110094026,0.090126015,inf,inf,inf,inf,1,1,1,1,2,0,2,1,2,1,1,0,0
34001000,33997000,5504000,40.1540302,116.2594857,-0.12953417,0.07769601,-0.68667555,-5.7123457e-06,0.00043753372,0.0,0.12038612,0.008349394,-0.0044526397,-0.0019708923,-0.09003591,0.060910452,0.101032995,0.15558858,-0.023321766,0.05192216,-0.0004905454,-0.12538752,49.94616,0.8168775,0.17065695,0.33583266,0.10994987,0.09016294,inf,inf,inf,inf,1,1,1,1,2,0,2,1,2,1,1,0,0
34496000,34489000,5504000,40.1540302,116.2594857,-0.016813476,0.06682037,-0.6807375,-5.7123457e-06,0.00043753372,0.0,-0.1413168,-0.0058583855,0.0015900801,0.008945592,-0.09003591,0.060910452,0.101032995,-4.085193,0.004901544,-0.049980354,-0.00015399352,-0.12538752,49.94616,0.81093943,0.16949807,0.33597445,0.108642764,0.08993159,inf,inf,inf,inf,1,1,1,1,2,0,2,1,2,1,1,0,0
34993000,34988000,5504000,40.1540302,116.2594857,0.17443839,0.054375894,-0.66581154,-5.7123457e-06,0.00043753372,0.0,0.2378749,-0.0073580947,-0.000637229,0.0150857465,-0.09003591,0.060910452,0.101032995,-0.91824013,0.0011260399,0.025429761,0.0003352675,-0.12538752,49.94616,0.7960135,0.16903192,0.33506563,0.10799599,0.08976114,inf,inf,inf,inf,1,1,1,1,2,0,2,1,2,1,1,0,0
35493000,35488000,5504000,40.1540302,116.2594857,0.22244537,0.025430886,-0.6434921,-5.7123457e-06,0.00043753372,0.0,-0.10274854,-0.017321704,0.00017028628,0.023846017,-0.09003591,0.060910452,0.101032995,0.33865365,0.029079145,-0.0050163697,0.00050582574,-0.12538752,49.94616,0.77369404,0.16860424,0.33569226,0.10737241,0.08973468,inf,inf,inf,inf,1,1,1,1,2,0,2,1,2,1,1,0,0
35996000,35992000,5504000,40.1540302,116.2594857,0.2814107,0.0145143075,-0.68881166,-5.7123457e-06,0.00043753372,0.0,0.08296648,-0.008744923,-0.0051969537,-0.02616815,-0.09003591,0.060910452,0.101032995,1.331893,0.0063615995,0.027841887,0.00073905656,-0.12538752,49.94616,0.8190136,0.16816208,0.33477697,0.10699359,0.089566596,inf,inf,inf,inf,1,1,1,1,2,0,2,1,2,1,1,0,0
36501000,36497000,5504000,40.1540302,116.2594857,0.37239355,0.0008228052,-0.7468404,-5.7123457e-06,0.00043753372,0.0,0.03086835,-0.0061520394,-0.0016262784,-0.054109834,-0.09003591,0.060910452,0.101032995,-0.23746102,0.012068145,0.02347119,0.0010245147,-0.12538752,49.94616,0.8770423,0.16785231,0.33543435,0.10668761,0.08956259,inf,inf,inf,inf,1,1,1,1,2,0,2,1,2,1,1,0,0
36996000,36992000,5504000,40.1540302,116.2594857,0.41114333,0.00471571,-0.73708516,-5.7123457e-06,0.00043753372,0.0,0.069651954,0.0006528845,0.0021132173,-0.018603338,-0.09003591,0.060910452,0.101032995,2.3631625,0.001680541,-0.026720976,0.0013107731,-0.12538752,49.94616,0.86728704,0.16756688,0.3345899,0.105915114,0.08945039,inf,inf,inf,inf,1,1,1,1,2,0,2,1,2,1,1,0,0
37493000,37489000,5504000,40.1540302,116.2594857,0.49633986,-0.0045481827,-0.7230239,-5.7123457e-06,0.00043753372,0.0,0.3538582,-0.005302768,-0.0069034155,-0.0050982353,-0.09003591,0.060910452,0.101032995,2.6475763,0.011094352,-0.17506255,0.0014382156,-0.12538752,49.94616,0.8532258,0.16725664,0.33525187,0.10562886,0.089464135,inf,inf,inf,inf,1,1,1,1,2,0,2,1,2,1,1,0,0
38000000,37996000,5504000,40.1540302,116.2594857,0.39585784,-0.017353637,-0.72092336,-5.7123457e-06,0.00043753372,0.0,0.029893823,-0.005327064,0.0025999693,0.004924982,-0.09003591,0.060910452,0.101032995,-3.281511,-0.00065829314,0.08361041,0.0013833295,-0.12538752,49.94616,0.85112524,0.16615523,0.33538762,0.104884066,0.0892172,inf,inf,inf,inf,1,1,1,1,2,0,2,1,2,1,1,0,0
38501000,38497000,5504000,40.1540302,116.2594857,0.1502247,-0.05218253,-0.6948063,-5.7123457e-06,0.00043753372,0.0,-0.0480944,-0.017515462,0.0059083905,0.025560746,-0.09003591,0.060910452,0.101032995,1.0779053,0.03424607,-0.05574301,0.0013128262,-0.12538752,49.94616,0.82500815,0.16724974,0.335492,0.10510865,0.08953307,inf,inf,inf,inf,1,1,1,1,2,0,2,1,2,1,1,0,0
38996000,38989000,5504000,40.1540302,116.2594857,-0.117416754,-0.077530384,-0.7122367,-5.7123457e-06,0.00043753372,0.0,-0.10913989,-0.013083946,-0.00068942225,-0.0054485216,-0.09003591,0.060910452,0.101032995,-0.397255,0.030691864,0.005118549,0.00087590836,-0.12538752,49.94616,0.8424386,0.16547231,0.33517894,0.10396398,0.08906721,inf,inf,inf,inf,1,1,1,1,2,0,2,1,2,1,1,0,0
39504000,39497000,5504000,40.1540302,116.2594857,-0.32901487,-0.09485869,-0.7074414,-5.7123457e-06,0.00043753372,0.0,-0.20047085,-0.009719651,0.0019435007,0.005150125,-0.09003591,0.060910452,0.101032995,-1.3270576,0.030344632,-0.064472854,0.0002715094,-0.12538752,49.94616,0.83764327,0.16589597,0.3347838,0.104144156,0.08912332,inf,inf,inf,inf,1,1,1,1,2,0,2,1,2,1,1,0,0
40004000,39997000,5504000,40.1540302,116.2594857,-0.4805606,-0.084915824,-0.7164937,-5.7123457e-06,0.00043753372,0.0,-0.17420736,0.0050131823,0.0026455887,-0.0010983732,-0.09003591,0.060910452,0.101032995,3.6070418,0.006067477,0.20669326,-0.00010893117,-0.12538752,49.94616,0.84669566,0.16568585,0.33545777,0.1036203,0.08912911,inf,inf,inf,inf,1,1,1,1,2,0,2,1,2,1,1,0,0
40496000,40492000,5504000,40.1540302,116.2594857,-0.45615196,-0.05735944,-0.6257315,-5.7123457e-06,0.00043753372,0.0,-0.17734943,0.023067081,0.41230652,0.44212836,-0.09003591,0.060910452,0.101032995,-2.4126651,-0.36199284,1.8146791,0.070395365,-0.12538752,49.94616,0.7559334,0.16477929,0.33409342,0.10247636,0.088808656,inf,inf,inf,inf,1,1,1,1,2,0,2,1,2,1,1,0,0
41001000,40996000,5504000,40.1540302,116.2594857,-0.2537417,-0.059415326,-0.25703022,-5.7123457e-06,0.00043753372,0.0,0.1074806,-0.024147673,0.6282565,0.6653368,-0.09003591,0.060910452,0.101032995,-2.7430112,-0.029599747,-0.6049862,0.027862787,-0.12538752,49.94616,0.38723212,0.16505396,0.33521485,0.101300955,0.08900157,inf,inf,inf,inf,1,1,1,1,2,0,2,1,2,1,1,0,0
41504000,41497000,5504000,40.1540302,116.2594857,-0.17983325,-0.07815066,-0.1323196,-5.7123457e-06,0.00043753372,0.0,-0.21923532,-0.035569213,0.20961949,0.20553696,-0.09003591,0.060910452,0.101032995,-0.14117618,0.018333478,6.4599795,-0.006479488,-0.12538752,49.94616,0.2625215,0.16524875,0.3348353,0.107422836,0.087964796,inf,inf,inf,inf,1,1,1,1,2,0,2,1,2,1,1,0,0
41997000,41992000,5504000,40.1540302,116.2594857,-0.20477194,-0.08044878,-0.112580694,-5.7123457e-06,0.00043753372,0.0,-0.23587869,-0.03558647,-0.05353691,-0.033222806,-0.09003591,0.060910452,0.101032995,-2.4011,0.011979457,-2.0548575,-0.0065765637,-0.12538752,49.94616,0.2427826,0.1638757,0.33451554,0.11743819,0.0833645,inf,inf,inf,inf,1,1,1,1,2,0,2,1,2,1,1,0,0
42496000,42489000,5504000,40.1540302,116.2594857,-0.18482673,-0.072899394,-0.05693632,-5.7123457e-06,0.00043753372,0.0,-0.061058123,-0.027266718,0.029782042,0.08704221,-0.09003591,0.060910452,0.101032995,0.7288325,-0.005743526,-0.8608065,-0.006623325,-0.12538752,49.94616,0.18713823,0.17223965,0.33562213,0.13408187,0.08251699,inf,inf,inf,inf,1,1,1,1,2,0,2,1,2,1,1,0,0
42993000,42988000,5504000,40.1540302,116.2594857,-0.11911946,-0.06601371,-0.0480462,-5.7123457e-06,0.00043753372,0.0,-0.1221695,-0.017241694,0.032825902,0.06896844,-0.09003591,0.060910452,0.101032995,-1.6320314,0.017487347,-0.123070545,-0.006612953,-0.12538752,49.94616,0.1,0.17253375,0.335891,0.13290258,0.08179661,inf,inf,inf,inf,1,1,1,1,2,0,2,1,2,1,1,1,0
43493000,43488000,5504000,40.1540302,116.2594857,-0.10304851,-0.05605564,-0.031001754,-5.7123457e-06,0.00043753372,0.0,0.12509604,-0.007654837,0.015264365,0.038764037,-0.09003591,0.060910452,0.101032995,0.35851806,0.0077748657,-0.00864081,-0.006610354,-0.12538752,49.94616,0.1,0.17153774,0.33414605,0.12615848,0.08181519,inf,inf,inf,inf,1,1,1,1,2,0,2,1,2,1,1,1,0
44000000,43996000,5504000,40.1540302,116.2594857,0.012476717,-0.03404587,-0.050156664,-5.7123457e-06,0.00043753372,0.0,0.28849274,0.010648135,0.0032594195,0.00027158833,-0.09003591,0.060910452,0.101032995,0.15062049,0.013549484,-0.0019744036,-0.0064994926,-0.12538752,49.94616,0.1,0.17224906,0.3333306,0.123375855,0.08280469,inf,inf,inf,inf,1,1,1,1,2,0,2,1,2,1,1,1,0
44501000,44497000,5504000,40.1540302,116.2594857,0.013144863,-0.031779367,-0.033307366,-5.7123457e-06,0.00043753372,0.0,0.017100248,0.009351886,0.011500132,0.021862183,-0.09003591,0.060910452,0.101032995,-1.3856975,0.017769028,0.011280178,-0.0065095234,-0.12538752,49.94616,0.10356664,0.17243154,0.33402568,0.12061662,0.084131226,inf,inf,inf,inf,1,1,1,1,2,0,2,1,2,1,1,1,0
44996000,44989000,5504000,40.1540302,116.2594857,-0.04964172,-0.016424295,-0.029421238,-5.7123457e-06,0.00043753372,0.0,-0.045029957,0.020745447,0.01040474,0.012012321,-0.09003591,0.060910452,0.101032995,0.60146976,0.009148336,-0.0062033534,-0.006450768,-0.12538752,49.94616,0.1,0.17088655,0.33386323,0.11730603,0.08510636,inf,inf,inf,inf,1,1,1,1,2,0,2,1,2,1,1,1,0
45501000,45496000,5504000,40.1540302,116.2594857,-0.087546535,0.0046467595,-0.033880133,-5.7123457e-06,0.00043753372,0.0,-0.028089035,0.032655254,0.007826077,0.0067557357,-0.09003591,0.060910452,0.101032995,-2.2631624,0.029814601,0.023461878,-0.006383392,-0.12538752,49.94616,0.10678053,0.17023762,0.33271974,0.11490589,0.0861111,inf,inf,inf,inf,1,1,1,1,2,0,2,1,2,1,1,1,0
